"","X","Subject","item","noun","condition","word.CRESP","word.RESP","word.ACC","word.RT","listnr_reading","reading_session_should","reading_listnr_received","recog_is_derivative_from_reading","reading_actuallistnr_received","reading_list_intended","recognition_list_intended","wrong_combo","group"
"1",1,"ya_1","13_unexpected","Couch","unexpected","j","j",1,1618,1,1,4,2,3,4,1,"XXXX","Younger"
"2",2,"ya_1","14_unseen","Fahrzeuge",NA,"n","n",1,1601,1,1,4,2,3,4,1,"XXXX","Younger"
"3",3,"ya_1","5_unexpected","Grundstück","unexpected","j","n",0,969,1,1,4,2,3,4,1,"XXXX","Younger"
"4",4,"ya_1","7_unseen","Zeichnung",NA,"n","n",1,1434,1,1,4,2,3,4,1,"XXXX","Younger"
"5",5,"ya_1","48_unexpected","Dachboden","unexpected","j","n",0,1385,1,1,4,2,3,4,1,"XXXX","Younger"
"6",6,"ya_1","11_unseen","Zuneigung",NA,"n","n",1,1449,1,1,4,2,3,4,1,"XXXX","Younger"
"7",7,"ya_1","19_unexpected","Klappe","unexpected","j","n",0,1159,1,1,4,2,3,4,1,"XXXX","Younger"
"8",8,"ya_1","4_unseen","Unterricht",NA,"n","j",0,929,1,1,4,2,3,4,1,"XXXX","Younger"
"9",9,"ya_1","42_expected","Boden","expected","j","j",1,1092,1,1,4,2,3,4,1,"XXXX","Younger"
"10",10,"ya_1","36_unseen","Schande",NA,"n","n",1,881,1,1,4,2,3,4,1,"XXXX","Younger"
"11",11,"ya_1","40_expected","Affen","expected","j","n",0,1350,1,1,4,2,3,4,1,"XXXX","Younger"
"12",12,"ya_1","6_unseen","Gipfel",NA,"n","n",1,736,1,1,4,2,3,4,1,"XXXX","Younger"
"13",13,"ya_1","39_unexpected","Hospital","unexpected","j","n",0,970,1,1,4,2,3,4,1,"XXXX","Younger"
"14",14,"ya_1","3_unexpected","Haus","unexpected","j","j",1,931,1,1,4,2,3,4,1,"XXXX","Younger"
"15",15,"ya_1","30_unseen","Toaster",NA,"n","n",1,726,1,1,4,2,3,4,1,"XXXX","Younger"
"16",16,"ya_1","20_expected","Fahrrad","expected","j","n",0,1104,1,1,4,2,3,4,1,"XXXX","Younger"
"17",17,"ya_1","32_unseen","Buchstaben",NA,"n","n",1,908,1,1,4,2,3,4,1,"XXXX","Younger"
"18",18,"ya_1","4_expected","Zähne","expected","j","n",0,639,1,1,4,2,3,4,1,"XXXX","Younger"
"19",19,"ya_1","5_unseen","Kopfgeld",NA,"n","n",1,646,1,1,4,2,3,4,1,"XXXX","Younger"
"20",20,"ya_1","9_unexpected","Menge","unexpected","j","n",0,2716,1,1,4,2,3,4,1,"XXXX","Younger"
"21",21,"ya_1","8_expected","Berge","expected","j","j",1,1976,1,1,4,2,3,4,1,"XXXX","Younger"
"22",22,"ya_1","15_unseen","Künstlerin",NA,"n","j",0,1521,1,1,4,2,3,4,1,"XXXX","Younger"
"23",23,"ya_1","6_expected","Tisch","expected","j","n",0,1108,1,1,4,2,3,4,1,"XXXX","Younger"
"24",24,"ya_1","34_expected","Bäckerei","expected","j","n",0,1176,1,1,4,2,3,4,1,"XXXX","Younger"
"25",25,"ya_1","1_unseen","Käsekuchen",NA,"n","n",1,769,1,1,4,2,3,4,1,"XXXX","Younger"
"26",26,"ya_1","38_expected","Licht","expected","j","n",0,978,1,1,4,2,3,4,1,"XXXX","Younger"
"27",27,"ya_1","23_unseen","Röhre",NA,"n","n",1,852,1,1,4,2,3,4,1,"XXXX","Younger"
"28",28,"ya_1","14_expected","Ferien","expected","j","j",1,1385,1,1,4,2,3,4,1,"XXXX","Younger"
"29",29,"ya_1","39_unseen","Makler",NA,"n","n",1,986,1,1,4,2,3,4,1,"XXXX","Younger"
"30",30,"ya_1","2_unseen","Technik",NA,"n","j",0,1738,1,1,4,2,3,4,1,"XXXX","Younger"
"31",31,"ya_1","18_expected","Orchester","expected","j","j",1,1501,1,1,4,2,3,4,1,"XXXX","Younger"
"32",32,"ya_1","37_unseen","Smaragd",NA,"n","n",1,656,1,1,4,2,3,4,1,"XXXX","Younger"
"33",33,"ya_1","45_unexpected","Antwort","unexpected","j","n",0,1173,1,1,4,2,3,4,1,"XXXX","Younger"
"34",34,"ya_1","10_unseen","Zwerge",NA,"n","n",1,959,1,1,4,2,3,4,1,"XXXX","Younger"
"35",35,"ya_1","17_unseen","Brüder",NA,"n","n",1,688,1,1,4,2,3,4,1,"XXXX","Younger"
"36",36,"ya_1","7_unexpected","Wagen","unexpected","j","j",1,1709,1,1,4,2,3,4,1,"XXXX","Younger"
"37",37,"ya_1","37_unexpected","Waffe","unexpected","j","n",0,905,1,1,4,2,3,4,1,"XXXX","Younger"
"38",38,"ya_1","40_unseen","Türke",NA,"n","n",1,604,1,1,4,2,3,4,1,"XXXX","Younger"
"39",39,"ya_1","29_unseen","Materie",NA,"n","n",1,668,1,1,4,2,3,4,1,"XXXX","Younger"
"40",40,"ya_1","49_expected","Paket","expected","j","j",1,1545,1,1,4,2,3,4,1,"XXXX","Younger"
"41",41,"ya_1","17_unexpected","Herausforderung","unexpected","j","n",0,692,1,1,4,2,3,4,1,"XXXX","Younger"
"42",42,"ya_1","25_unexpected","Wappen","unexpected","j","n",0,736,1,1,4,2,3,4,1,"XXXX","Younger"
"43",43,"ya_1","43_unexpected","Gatter","unexpected","j","n",0,642,1,1,4,2,3,4,1,"XXXX","Younger"
"44",44,"ya_1","13_unseen","Frosch",NA,"n","n",1,585,1,1,4,2,3,4,1,"XXXX","Younger"
"45",45,"ya_1","3_unseen","Lippen",NA,"n","n",1,809,1,1,4,2,3,4,1,"XXXX","Younger"
"46",46,"ya_1","35_unexpected","Mund","unexpected","j","n",0,1888,1,1,4,2,3,4,1,"XXXX","Younger"
"47",47,"ya_1","33_unseen","Weste",NA,"n","n",1,837,1,1,4,2,3,4,1,"XXXX","Younger"
"48",48,"ya_1","16_unseen","Antarktis",NA,"n","n",1,612,1,1,4,2,3,4,1,"XXXX","Younger"
"49",49,"ya_1","25_unseen","Einzelkind",NA,"n","n",1,899,1,1,4,2,3,4,1,"XXXX","Younger"
"50",50,"ya_1","28_unseen","Verschluss",NA,"n","n",1,887,1,1,4,2,3,4,1,"XXXX","Younger"
"51",51,"ya_1","31_unexpected","Watte","unexpected","j","n",0,722,1,1,4,2,3,4,1,"XXXX","Younger"
"52",52,"ya_1","19_unseen","Bombe",NA,"n","n",1,637,1,1,4,2,3,4,1,"XXXX","Younger"
"53",53,"ya_1","2_expected","Auto","expected","j","j",1,1236,1,1,4,2,3,4,1,"XXXX","Younger"
"54",54,"ya_1","12_unseen","Wunsch",NA,"n","n",1,746,1,1,4,2,3,4,1,"XXXX","Younger"
"55",55,"ya_1","36_expected","Sauna","expected","j","j",1,852,1,1,4,2,3,4,1,"XXXX","Younger"
"56",56,"ya_1","16_expected","Schloss","expected","j","n",0,722,1,1,4,2,3,4,1,"XXXX","Younger"
"57",57,"ya_1","10_expected","Band","expected","j","n",0,1205,1,1,4,2,3,4,1,"XXXX","Younger"
"58",58,"ya_1","8_unseen","Schutt",NA,"n","n",1,829,1,1,4,2,3,4,1,"XXXX","Younger"
"59",59,"ya_1","24_unseen","Speisesaal",NA,"n","n",1,588,1,1,4,2,3,4,1,"XXXX","Younger"
"60",60,"ya_1","1_unexpected","Schlafzimmer","unexpected","j","j",1,1700,1,1,4,2,3,4,1,"XXXX","Younger"
"61",61,"ya_1","27_unseen","Bildschirm",NA,"n","n",1,1896,1,1,4,2,3,4,1,"XXXX","Younger"
"62",62,"ya_1","27_unexpected","Platte","unexpected","j","n",0,693,1,1,4,2,3,4,1,"XXXX","Younger"
"63",63,"ya_1","28_expected","Briefkasten","expected","j","j",1,1233,1,1,4,2,3,4,1,"XXXX","Younger"
"64",64,"ya_1","20_unseen","Wüste",NA,"n","j",0,1112,1,1,4,2,3,4,1,"XXXX","Younger"
"65",65,"ya_1","9_unseen","Sekunde",NA,"n","n",1,884,1,1,4,2,3,4,1,"XXXX","Younger"
"66",66,"ya_1","24_expected","Wald","expected","j","n",0,800,1,1,4,2,3,4,1,"XXXX","Younger"
"67",67,"ya_1","35_unseen","Mozart",NA,"n","n",1,688,1,1,4,2,3,4,1,"XXXX","Younger"
"68",68,"ya_1","18_unseen","Pfadfinder",NA,"n","n",1,748,1,1,4,2,3,4,1,"XXXX","Younger"
"69",69,"ya_1","15_unexpected","Untermieterin","unexpected","j","j",1,1821,1,1,4,2,3,4,1,"XXXX","Younger"
"70",70,"ya_1","30_expected","Polizei","expected","j","j",1,1324,1,1,4,2,3,4,1,"XXXX","Younger"
"71",71,"ya_1","34_unseen","Hypnose",NA,"n","n",1,623,1,1,4,2,3,4,1,"XXXX","Younger"
"72",72,"ya_1","22_expected","Kühlschrank","expected","j","n",0,1734,1,1,4,2,3,4,1,"XXXX","Younger"
"73",73,"ya_1","22_unseen","Pfanne",NA,"n","n",1,785,1,1,4,2,3,4,1,"XXXX","Younger"
"74",74,"ya_1","38_unseen","Felsen",NA,"n","n",1,785,1,1,4,2,3,4,1,"XXXX","Younger"
"75",75,"ya_1","21_unexpected","Offizier","unexpected","j","n",0,858,1,1,4,2,3,4,1,"XXXX","Younger"
"76",76,"ya_1","31_unseen","Salami",NA,"n","n",1,615,1,1,4,2,3,4,1,"XXXX","Younger"
"77",77,"ya_1","26_unseen","Märchen",NA,"n","n",1,1542,1,1,4,2,3,4,1,"XXXX","Younger"
"78",78,"ya_1","47_expected","Tür","expected","j","j",1,985,1,1,4,2,3,4,1,"XXXX","Younger"
"79",79,"ya_1","41_unexpected","Bock","unexpected","j","n",0,745,1,1,4,2,3,4,1,"XXXX","Younger"
"80",80,"ya_1","21_unseen","Zigaretten",NA,"n","n",1,980,1,1,4,2,3,4,1,"XXXX","Younger"
"81",81,"ya_10","11_expected","Müll","expected","j","j",1,2487,2,2,1,1,1,1,2,"","Younger"
"82",82,"ya_10","40_unexpected","Vogel","unexpected","j","j",1,1036,2,2,1,1,1,1,2,"","Younger"
"83",83,"ya_10","23_expected","Zug","expected","j","n",0,1154,2,2,1,1,1,1,2,"","Younger"
"84",84,"ya_10","38_unseen","Felsen",NA,"n","n",1,2068,2,2,1,1,1,1,2,"","Younger"
"85",85,"ya_10","9_unseen","Sekunde",NA,"n","n",1,1265,2,2,1,1,1,1,2,"","Younger"
"86",86,"ya_10","12_unseen","Wunsch",NA,"n","n",1,2174,2,2,1,1,1,1,2,"","Younger"
"87",87,"ya_10","33_unseen","Weste",NA,"n","n",1,1928,2,2,1,1,1,1,2,"","Younger"
"88",88,"ya_10","30_unexpected","Geschäft","unexpected","j","j",1,802,2,2,1,1,1,1,2,"","Younger"
"89",89,"ya_10","3_expected","Tür","expected","j","j",1,1042,2,2,1,1,1,1,2,"","Younger"
"90",90,"ya_10","25_expected","Flagge","expected","j","j",1,720,2,2,1,1,1,1,2,"","Younger"
"91",91,"ya_10","43_expected","Stall","expected","j","j",1,715,2,2,1,1,1,1,2,"","Younger"
"92",92,"ya_10","35_unseen","Mozart",NA,"n","n",1,1702,2,2,1,1,1,1,2,"","Younger"
"93",93,"ya_10","12_unexpected","Bart","unexpected","j","j",1,874,2,2,1,1,1,1,2,"","Younger"
"94",94,"ya_10","17_unseen","Brüder",NA,"n","n",1,2383,2,2,1,1,1,1,2,"","Younger"
"95",95,"ya_10","40_unseen","Türke",NA,"n","n",1,1376,2,2,1,1,1,1,2,"","Younger"
"96",96,"ya_10","1_unseen","Käsekuchen",NA,"n","n",1,913,2,2,1,1,1,1,2,"","Younger"
"97",97,"ya_10","49_unexpected","Umschlag","unexpected","j","n",0,2125,2,2,1,1,1,1,2,"","Younger"
"98",98,"ya_10","32_unseen","Buchstaben",NA,"n","n",1,3080,2,2,1,1,1,1,2,"","Younger"
"99",99,"ya_10","25_unseen","Einzelkind",NA,"n","n",1,862,2,2,1,1,1,1,2,"","Younger"
"100",100,"ya_10","31_unseen","Salami",NA,"n","n",1,739,2,2,1,1,1,1,2,"","Younger"
"101",101,"ya_10","22_unexpected","Badewanne","unexpected","j","j",1,998,2,2,1,1,1,1,2,"","Younger"
"102",102,"ya_10","23_unseen","Röhre",NA,"n","n",1,1181,2,2,1,1,1,1,2,"","Younger"
"103",103,"ya_10","24_unexpected","Gegend","unexpected","j","n",0,1622,2,2,1,1,1,1,2,"","Younger"
"104",104,"ya_10","14_unexpected","Weihnachtsmann","unexpected","j","n",0,1805,2,2,1,1,1,1,2,"","Younger"
"105",105,"ya_10","4_unseen","Unterricht",NA,"n","n",1,2925,2,2,1,1,1,1,2,"","Younger"
"106",106,"ya_10","34_unexpected","Hotelzimmer","unexpected","j","j",1,1089,2,2,1,1,1,1,2,"","Younger"
"107",107,"ya_10","17_expected","Rätsel","expected","j","j",1,1013,2,2,1,1,1,1,2,"","Younger"
"108",108,"ya_10","10_unexpected","Rose","unexpected","j","j",1,1317,2,2,1,1,1,1,2,"","Younger"
"109",109,"ya_10","14_unseen","Fahrzeuge",NA,"n","n",1,1408,2,2,1,1,1,1,2,"","Younger"
"110",110,"ya_10","44_unexpected","Vorhang","unexpected","j","n",0,1968,2,2,1,1,1,1,2,"","Younger"
"111",111,"ya_10","20_unseen","Wüste",NA,"n","j",0,1097,2,2,1,1,1,1,2,"","Younger"
"112",112,"ya_10","4_unexpected","Bauch","unexpected","j","j",1,638,2,2,1,1,1,1,2,"","Younger"
"113",113,"ya_10","13_unseen","Frosch",NA,"n","n",1,1084,2,2,1,1,1,1,2,"","Younger"
"114",114,"ya_10","26_unexpected","Ratte","unexpected","j","n",0,1792,2,2,1,1,1,1,2,"","Younger"
"115",115,"ya_10","38_unexpected","Computer","unexpected","j","j",1,1400,2,2,1,1,1,1,2,"","Younger"
"116",116,"ya_10","31_expected","Teig","expected","j","j",1,784,2,2,1,1,1,1,2,"","Younger"
"117",117,"ya_10","47_unexpected","Fensterrahmen","unexpected","j","j",1,768,2,2,1,1,1,1,2,"","Younger"
"118",118,"ya_10","10_unseen","Zwerge",NA,"n","n",1,1473,2,2,1,1,1,1,2,"","Younger"
"119",119,"ya_10","8_unexpected","Osten","unexpected","j","j",1,1334,2,2,1,1,1,1,2,"","Younger"
"120",120,"ya_10","9_expected","Ziel","expected","j","j",1,1337,2,2,1,1,1,1,2,"","Younger"
"121",121,"ya_10","5_unseen","Kopfgeld",NA,"n","n",1,900,2,2,1,1,1,1,2,"","Younger"
"122",122,"ya_10","15_unseen","Künstlerin",NA,"n","n",1,1575,2,2,1,1,1,1,2,"","Younger"
"123",123,"ya_10","39_expected","Apotheke","expected","j","j",1,784,2,2,1,1,1,1,2,"","Younger"
"124",124,"ya_10","35_expected","Nase","expected","j","n",0,2153,2,2,1,1,1,1,2,"","Younger"
"125",125,"ya_10","27_unseen","Bildschirm",NA,"n","n",1,2203,2,2,1,1,1,1,2,"","Younger"
"126",126,"ya_10","7_expected","Schiff","expected","j","j",1,1203,2,2,1,1,1,1,2,"","Younger"
"127",127,"ya_10","26_unseen","Märchen",NA,"n","n",1,1315,2,2,1,1,1,1,2,"","Younger"
"128",128,"ya_10","19_unseen","Bombe",NA,"n","n",1,1158,2,2,1,1,1,1,2,"","Younger"
"129",129,"ya_10","27_expected","Herd","expected","j","j",1,752,2,2,1,1,1,1,2,"","Younger"
"130",130,"ya_10","16_unseen","Antarktis",NA,"n","n",1,825,2,2,1,1,1,1,2,"","Younger"
"131",131,"ya_10","29_expected","Geheimnis","expected","j","j",1,816,2,2,1,1,1,1,2,"","Younger"
"132",132,"ya_10","7_unseen","Zeichnung",NA,"n","n",1,2711,2,2,1,1,1,1,2,"","Younger"
"133",133,"ya_10","6_unseen","Gipfel",NA,"n","j",0,1220,2,2,1,1,1,1,2,"","Younger"
"134",134,"ya_10","30_unseen","Toaster",NA,"n","n",1,907,2,2,1,1,1,1,2,"","Younger"
"135",135,"ya_10","8_unseen","Schutt",NA,"n","n",1,1663,2,2,1,1,1,1,2,"","Younger"
"136",136,"ya_10","36_unexpected","Salon","unexpected","j","n",0,933,2,2,1,1,1,1,2,"","Younger"
"137",137,"ya_10","11_unseen","Zuneigung",NA,"n","n",1,1199,2,2,1,1,1,1,2,"","Younger"
"138",138,"ya_10","16_unexpected","Bus","unexpected","j","n",0,1231,2,2,1,1,1,1,2,"","Younger"
"139",139,"ya_10","19_expected","Fenster","expected","j","j",1,1174,2,2,1,1,1,1,2,"","Younger"
"140",140,"ya_10","39_unseen","Makler",NA,"n","n",1,1455,2,2,1,1,1,1,2,"","Younger"
"141",141,"ya_10","41_expected","Kühe","expected","j","n",0,1237,2,2,1,1,1,1,2,"","Younger"
"142",142,"ya_10","2_unexpected","Gruppe","unexpected","j","j",1,2282,2,2,1,1,1,1,2,"","Younger"
"143",143,"ya_10","42_unexpected","Decke","unexpected","j","j",1,927,2,2,1,1,1,1,2,"","Younger"
"144",144,"ya_10","21_expected","Wunde","expected","j","n",0,1674,2,2,1,1,1,1,2,"","Younger"
"145",145,"ya_10","37_unseen","Smaragd",NA,"n","n",1,1728,2,2,1,1,1,1,2,"","Younger"
"146",146,"ya_10","45_expected","Ja-Wort","expected","j","j",1,1315,2,2,1,1,1,1,2,"","Younger"
"147",147,"ya_10","28_unseen","Verschluss",NA,"n","n",1,2390,2,2,1,1,1,1,2,"","Younger"
"148",148,"ya_10","21_unseen","Zigaretten",NA,"n","n",1,1135,2,2,1,1,1,1,2,"","Younger"
"149",149,"ya_10","3_unseen","Lippen",NA,"n","n",1,1929,2,2,1,1,1,1,2,"","Younger"
"150",150,"ya_10","36_unseen","Schande",NA,"n","n",1,1501,2,2,1,1,1,1,2,"","Younger"
"151",151,"ya_10","20_unexpected","Ausrüstung","unexpected","j","j",1,2481,2,2,1,1,1,1,2,"","Younger"
"152",152,"ya_10","15_expected","Schlüsseldienst","expected","j","j",1,806,2,2,1,1,1,1,2,"","Younger"
"153",153,"ya_10","24_unseen","Speisesaal",NA,"n","n",1,2285,2,2,1,1,1,1,2,"","Younger"
"154",154,"ya_10","22_unseen","Pfanne",NA,"n","n",1,1258,2,2,1,1,1,1,2,"","Younger"
"155",155,"ya_10","29_unseen","Materie",NA,"n","n",1,1984,2,2,1,1,1,1,2,"","Younger"
"156",156,"ya_10","18_unseen","Pfadfinder",NA,"n","n",1,1057,2,2,1,1,1,1,2,"","Younger"
"157",157,"ya_10","33_expected","Sonne","expected","j","j",1,1230,2,2,1,1,1,1,2,"","Younger"
"158",158,"ya_10","2_unseen","Technik",NA,"n","j",0,1949,2,2,1,1,1,1,2,"","Younger"
"159",159,"ya_10","48_expected","Wand","expected","j","j",1,1504,2,2,1,1,1,1,2,"","Younger"
"160",160,"ya_10","34_unseen","Hypnose",NA,"n","n",1,899,2,2,1,1,1,1,2,"","Younger"
"161",161,"ya_11","11_expected","Müll","expected","j","j",1,3930,2,2,3,1,3,3,2,"","Younger"
"162",162,"ya_11","40_unexpected","Vogel","unexpected","j","n",0,35918,2,2,3,1,3,3,2,"","Younger"
"163",163,"ya_11","23_expected","Zug","expected","j","j",1,2101,2,2,3,1,3,3,2,"","Younger"
"164",164,"ya_11","38_unseen","Felsen",NA,"n","n",1,7905,2,2,3,1,3,3,2,"","Younger"
"165",165,"ya_11","9_unseen","Sekunde",NA,"n","n",1,7871,2,2,3,1,3,3,2,"","Younger"
"166",166,"ya_11","12_unseen","Wunsch",NA,"n","n",1,14047,2,2,3,1,3,3,2,"","Younger"
"167",167,"ya_11","33_unseen","Weste",NA,"n","n",1,2233,2,2,3,1,3,3,2,"","Younger"
"168",168,"ya_11","30_unexpected","Geschäft","unexpected","j","j",1,5824,2,2,3,1,3,3,2,"","Younger"
"169",169,"ya_11","3_expected","Tür","expected","j","j",1,11352,2,2,3,1,3,3,2,"","Younger"
"170",170,"ya_11","25_expected","Flagge","expected","j","j",1,1014,2,2,3,1,3,3,2,"","Younger"
"171",171,"ya_11","43_expected","Stall","expected","j","j",1,1413,2,2,3,1,3,3,2,"","Younger"
"172",172,"ya_11","35_unseen","Mozart",NA,"n","n",1,1957,2,2,3,1,3,3,2,"","Younger"
"173",173,"ya_11","12_unexpected","Bart","unexpected","j","j",1,1286,2,2,3,1,3,3,2,"","Younger"
"174",174,"ya_11","17_unseen","Brüder",NA,"n","n",1,4355,2,2,3,1,3,3,2,"","Younger"
"175",175,"ya_11","40_unseen","Türke",NA,"n","n",1,1078,2,2,3,1,3,3,2,"","Younger"
"176",176,"ya_11","1_unseen","Käsekuchen",NA,"n","n",1,1443,2,2,3,1,3,3,2,"","Younger"
"177",177,"ya_11","49_unexpected","Umschlag","unexpected","j","n",0,10361,2,2,3,1,3,3,2,"","Younger"
"178",178,"ya_11","32_unseen","Buchstaben",NA,"n","n",1,5158,2,2,3,1,3,3,2,"","Younger"
"179",179,"ya_11","25_unseen","Einzelkind",NA,"n","n",1,1129,2,2,3,1,3,3,2,"","Younger"
"180",180,"ya_11","31_unseen","Salami",NA,"n","n",1,740,2,2,3,1,3,3,2,"","Younger"
"181",181,"ya_11","22_unexpected","Badewanne","unexpected","j","j",1,1182,2,2,3,1,3,3,2,"","Younger"
"182",182,"ya_11","23_unseen","Röhre",NA,"n","n",1,911,2,2,3,1,3,3,2,"","Younger"
"183",183,"ya_11","24_unexpected","Gegend","unexpected","j","n",0,810,2,2,3,1,3,3,2,"","Younger"
"184",184,"ya_11","14_unexpected","Weihnachtsmann","unexpected","j","j",1,1218,2,2,3,1,3,3,2,"","Younger"
"185",185,"ya_11","4_unseen","Unterricht",NA,"n","n",1,7617,2,2,3,1,3,3,2,"","Younger"
"186",186,"ya_11","34_unexpected","Hotelzimmer","unexpected","j","j",1,770,2,2,3,1,3,3,2,"","Younger"
"187",187,"ya_11","17_expected","Rätsel","expected","j","j",1,2883,2,2,3,1,3,3,2,"","Younger"
"188",188,"ya_11","10_unexpected","Rose","unexpected","j","j",1,936,2,2,3,1,3,3,2,"","Younger"
"189",189,"ya_11","14_unseen","Fahrzeuge",NA,"n","n",1,3275,2,2,3,1,3,3,2,"","Younger"
"190",190,"ya_11","44_unexpected","Vorhang","unexpected","j","j",1,2585,2,2,3,1,3,3,2,"","Younger"
"191",191,"ya_11","20_unseen","Wüste",NA,"n","j",0,818,2,2,3,1,3,3,2,"","Younger"
"192",192,"ya_11","4_unexpected","Bauch","unexpected","j","j",1,841,2,2,3,1,3,3,2,"","Younger"
"193",193,"ya_11","13_unseen","Frosch",NA,"n","n",1,2039,2,2,3,1,3,3,2,"","Younger"
"194",194,"ya_11","26_unexpected","Ratte","unexpected","j","j",1,830,2,2,3,1,3,3,2,"","Younger"
"195",195,"ya_11","38_unexpected","Computer","unexpected","j","j",1,805,2,2,3,1,3,3,2,"","Younger"
"196",196,"ya_11","31_expected","Teig","expected","j","j",1,884,2,2,3,1,3,3,2,"","Younger"
"197",197,"ya_11","47_unexpected","Fensterrahmen","unexpected","j","j",1,1033,2,2,3,1,3,3,2,"","Younger"
"198",198,"ya_11","10_unseen","Zwerge",NA,"n","n",1,1647,2,2,3,1,3,3,2,"","Younger"
"199",199,"ya_11","8_unexpected","Osten","unexpected","j","j",1,798,2,2,3,1,3,3,2,"","Younger"
"200",200,"ya_11","9_expected","Ziel","expected","j","j",1,1014,2,2,3,1,3,3,2,"","Younger"
"201",201,"ya_11","5_unseen","Kopfgeld",NA,"n","n",1,910,2,2,3,1,3,3,2,"","Younger"
"202",202,"ya_11","15_unseen","Künstlerin",NA,"n","j",0,793,2,2,3,1,3,3,2,"","Younger"
"203",203,"ya_11","39_expected","Apotheke","expected","j","j",1,690,2,2,3,1,3,3,2,"","Younger"
"204",204,"ya_11","35_expected","Nase","expected","j","j",1,4430,2,2,3,1,3,3,2,"","Younger"
"205",205,"ya_11","27_unseen","Bildschirm",NA,"n","n",1,3230,2,2,3,1,3,3,2,"","Younger"
"206",206,"ya_11","7_expected","Schiff","expected","j","j",1,2686,2,2,3,1,3,3,2,"","Younger"
"207",207,"ya_11","26_unseen","Märchen",NA,"n","n",1,1386,2,2,3,1,3,3,2,"","Younger"
"208",208,"ya_11","19_unseen","Bombe",NA,"n","n",1,826,2,2,3,1,3,3,2,"","Younger"
"209",209,"ya_11","27_expected","Herd","expected","j","j",1,1041,2,2,3,1,3,3,2,"","Younger"
"210",210,"ya_11","16_unseen","Antarktis",NA,"n","n",1,736,2,2,3,1,3,3,2,"","Younger"
"211",211,"ya_11","29_expected","Geheimnis","expected","j","j",1,1306,2,2,3,1,3,3,2,"","Younger"
"212",212,"ya_11","7_unseen","Zeichnung",NA,"n","n",1,1142,2,2,3,1,3,3,2,"","Younger"
"213",213,"ya_11","6_unseen","Gipfel",NA,"n","n",1,864,2,2,3,1,3,3,2,"","Younger"
"214",214,"ya_11","30_unseen","Toaster",NA,"n","n",1,757,2,2,3,1,3,3,2,"","Younger"
"215",215,"ya_11","8_unseen","Schutt",NA,"n","n",1,1319,2,2,3,1,3,3,2,"","Younger"
"216",216,"ya_11","36_unexpected","Salon","unexpected","j","j",1,810,2,2,3,1,3,3,2,"","Younger"
"217",217,"ya_11","11_unseen","Zuneigung",NA,"n","n",1,1074,2,2,3,1,3,3,2,"","Younger"
"218",218,"ya_11","16_unexpected","Bus","unexpected","j","n",0,3191,2,2,3,1,3,3,2,"","Younger"
"219",219,"ya_11","19_expected","Fenster","expected","j","j",1,2400,2,2,3,1,3,3,2,"","Younger"
"220",220,"ya_11","39_unseen","Makler",NA,"n","n",1,1056,2,2,3,1,3,3,2,"","Younger"
"221",221,"ya_11","41_expected","Kühe","expected","j","j",1,1030,2,2,3,1,3,3,2,"","Younger"
"222",222,"ya_11","2_unexpected","Gruppe","unexpected","j","n",0,1109,2,2,3,1,3,3,2,"","Younger"
"223",223,"ya_11","42_unexpected","Decke","unexpected","j","j",1,1977,2,2,3,1,3,3,2,"","Younger"
"224",224,"ya_11","21_expected","Wunde","expected","j","n",0,906,2,2,3,1,3,3,2,"","Younger"
"225",225,"ya_11","37_unseen","Smaragd",NA,"n","n",1,1158,2,2,3,1,3,3,2,"","Younger"
"226",226,"ya_11","45_expected","Ja-Wort","expected","j","j",1,1216,2,2,3,1,3,3,2,"","Younger"
"227",227,"ya_11","28_unseen","Verschluss",NA,"n","n",1,1247,2,2,3,1,3,3,2,"","Younger"
"228",228,"ya_11","21_unseen","Zigaretten",NA,"n","n",1,837,2,2,3,1,3,3,2,"","Younger"
"229",229,"ya_11","3_unseen","Lippen",NA,"n","n",1,892,2,2,3,1,3,3,2,"","Younger"
"230",230,"ya_11","36_unseen","Schande",NA,"n","n",1,824,2,2,3,1,3,3,2,"","Younger"
"231",231,"ya_11","20_unexpected","Ausrüstung","unexpected","j","j",1,887,2,2,3,1,3,3,2,"","Younger"
"232",232,"ya_11","15_expected","Schlüsseldienst","expected","j","j",1,811,2,2,3,1,3,3,2,"","Younger"
"233",233,"ya_11","24_unseen","Speisesaal",NA,"n","n",1,899,2,2,3,1,3,3,2,"","Younger"
"234",234,"ya_11","22_unseen","Pfanne",NA,"n","n",1,887,2,2,3,1,3,3,2,"","Younger"
"235",235,"ya_11","29_unseen","Materie",NA,"n","n",1,931,2,2,3,1,3,3,2,"","Younger"
"236",236,"ya_11","18_unseen","Pfadfinder",NA,"n","n",1,742,2,2,3,1,3,3,2,"","Younger"
"237",237,"ya_11","33_expected","Sonne","expected","j","n",0,744,2,2,3,1,3,3,2,"","Younger"
"238",238,"ya_11","2_unseen","Technik",NA,"n","n",1,1795,2,2,3,1,3,3,2,"","Younger"
"239",239,"ya_11","48_expected","Wand","expected","j","n",0,10299,2,2,3,1,3,3,2,"","Younger"
"240",240,"ya_11","34_unseen","Hypnose",NA,"n","n",1,1026,2,2,3,1,3,3,2,"","Younger"
"241",241,"ya_12","11_expected","Müll","expected","j","j",1,12011,2,1,1,1,1,2,1,"","Younger"
"242",242,"ya_12","40_unexpected","Vogel","unexpected","j","j",1,1365,2,1,1,1,1,2,1,"","Younger"
"243",243,"ya_12","23_expected","Zug","expected","j","j",1,1887,2,1,1,1,1,2,1,"","Younger"
"244",244,"ya_12","38_unseen","Felsen",NA,"n","n",1,1731,2,1,1,1,1,2,1,"","Younger"
"245",245,"ya_12","9_unseen","Sekunde",NA,"n","n",1,1094,2,1,1,1,1,2,1,"","Younger"
"246",246,"ya_12","12_unseen","Wunsch",NA,"n","n",1,4266,2,1,1,1,1,2,1,"","Younger"
"247",247,"ya_12","33_unseen","Weste",NA,"n","n",1,2697,2,1,1,1,1,2,1,"","Younger"
"248",248,"ya_12","30_unexpected","Geschäft","unexpected","j","j",1,1046,2,1,1,1,1,2,1,"","Younger"
"249",249,"ya_12","3_expected","Tür","expected","j","j",1,1372,2,1,1,1,1,2,1,"","Younger"
"250",250,"ya_12","25_expected","Flagge","expected","j","j",1,861,2,1,1,1,1,2,1,"","Younger"
"251",251,"ya_12","43_expected","Stall","expected","j","j",1,3419,2,1,1,1,1,2,1,"","Younger"
"252",252,"ya_12","35_unseen","Mozart",NA,"n","n",1,1299,2,1,1,1,1,2,1,"","Younger"
"253",253,"ya_12","12_unexpected","Bart","unexpected","j","j",1,1463,2,1,1,1,1,2,1,"","Younger"
"254",254,"ya_12","17_unseen","Brüder",NA,"n","n",1,2684,2,1,1,1,1,2,1,"","Younger"
"255",255,"ya_12","40_unseen","Türke",NA,"n","n",1,3649,2,1,1,1,1,2,1,"","Younger"
"256",256,"ya_12","1_unseen","Käsekuchen",NA,"n","n",1,1944,2,1,1,1,1,2,1,"","Younger"
"257",257,"ya_12","49_unexpected","Umschlag","unexpected","j","j",1,2387,2,1,1,1,1,2,1,"","Younger"
"258",258,"ya_12","32_unseen","Buchstaben",NA,"n","n",1,1380,2,1,1,1,1,2,1,"","Younger"
"259",259,"ya_12","25_unseen","Einzelkind",NA,"n","n",1,1341,2,1,1,1,1,2,1,"","Younger"
"260",260,"ya_12","31_unseen","Salami",NA,"n","n",1,1159,2,1,1,1,1,2,1,"","Younger"
"261",261,"ya_12","22_unexpected","Badewanne","unexpected","j","j",1,4160,2,1,1,1,1,2,1,"","Younger"
"262",262,"ya_12","23_unseen","Röhre",NA,"n","n",1,2611,2,1,1,1,1,2,1,"","Younger"
"263",263,"ya_12","24_unexpected","Gegend","unexpected","j","n",0,2971,2,1,1,1,1,2,1,"","Younger"
"264",264,"ya_12","14_unexpected","Weihnachtsmann","unexpected","j","j",1,3157,2,1,1,1,1,2,1,"","Younger"
"265",265,"ya_12","4_unseen","Unterricht",NA,"n","j",0,3239,2,1,1,1,1,2,1,"","Younger"
"266",266,"ya_12","34_unexpected","Hotelzimmer","unexpected","j","j",1,1262,2,1,1,1,1,2,1,"","Younger"
"267",267,"ya_12","17_expected","Rätsel","expected","j","n",0,1780,2,1,1,1,1,2,1,"","Younger"
"268",268,"ya_12","10_unexpected","Rose","unexpected","j","j",1,901,2,1,1,1,1,2,1,"","Younger"
"269",269,"ya_12","14_unseen","Fahrzeuge",NA,"n","j",0,1825,2,1,1,1,1,2,1,"","Younger"
"270",270,"ya_12","44_unexpected","Vorhang","unexpected","j","j",1,1128,2,1,1,1,1,2,1,"","Younger"
"271",271,"ya_12","20_unseen","Wüste",NA,"n","j",0,795,2,1,1,1,1,2,1,"","Younger"
"272",272,"ya_12","4_unexpected","Bauch","unexpected","j","j",1,1123,2,1,1,1,1,2,1,"","Younger"
"273",273,"ya_12","13_unseen","Frosch",NA,"n","n",1,1126,2,1,1,1,1,2,1,"","Younger"
"274",274,"ya_12","26_unexpected","Ratte","unexpected","j","j",1,1154,2,1,1,1,1,2,1,"","Younger"
"275",275,"ya_12","38_unexpected","Computer","unexpected","j","j",1,1083,2,1,1,1,1,2,1,"","Younger"
"276",276,"ya_12","31_expected","Teig","expected","j","j",1,952,2,1,1,1,1,2,1,"","Younger"
"277",277,"ya_12","47_unexpected","Fensterrahmen","unexpected","j","j",1,1977,2,1,1,1,1,2,1,"","Younger"
"278",278,"ya_12","10_unseen","Zwerge",NA,"n","n",1,851,2,1,1,1,1,2,1,"","Younger"
"279",279,"ya_12","8_unexpected","Osten","unexpected","j","j",1,960,2,1,1,1,1,2,1,"","Younger"
"280",280,"ya_12","9_expected","Ziel","expected","j","j",1,3330,2,1,1,1,1,2,1,"","Younger"
"281",281,"ya_12","5_unseen","Kopfgeld",NA,"n","n",1,1485,2,1,1,1,1,2,1,"","Younger"
"282",282,"ya_12","15_unseen","Künstlerin",NA,"n","j",0,2002,2,1,1,1,1,2,1,"","Younger"
"283",283,"ya_12","39_expected","Apotheke","expected","j","j",1,754,2,1,1,1,1,2,1,"","Younger"
"284",284,"ya_12","35_expected","Nase","expected","j","j",1,1564,2,1,1,1,1,2,1,"","Younger"
"285",285,"ya_12","27_unseen","Bildschirm",NA,"n","n",1,3694,2,1,1,1,1,2,1,"","Younger"
"286",286,"ya_12","7_expected","Schiff","expected","j","j",1,755,2,1,1,1,1,2,1,"","Younger"
"287",287,"ya_12","26_unseen","Märchen",NA,"n","n",1,2605,2,1,1,1,1,2,1,"","Younger"
"288",288,"ya_12","19_unseen","Bombe",NA,"n","n",1,1109,2,1,1,1,1,2,1,"","Younger"
"289",289,"ya_12","27_expected","Herd","expected","j","j",1,761,2,1,1,1,1,2,1,"","Younger"
"290",290,"ya_12","16_unseen","Antarktis",NA,"n","n",1,2226,2,1,1,1,1,2,1,"","Younger"
"291",291,"ya_12","29_expected","Geheimnis","expected","j","j",1,1546,2,1,1,1,1,2,1,"","Younger"
"292",292,"ya_12","7_unseen","Zeichnung",NA,"n","n",1,1604,2,1,1,1,1,2,1,"","Younger"
"293",293,"ya_12","6_unseen","Gipfel",NA,"n","n",1,1484,2,1,1,1,1,2,1,"","Younger"
"294",294,"ya_12","30_unseen","Toaster",NA,"n","n",1,1449,2,1,1,1,1,2,1,"","Younger"
"295",295,"ya_12","8_unseen","Schutt",NA,"n","n",1,2967,2,1,1,1,1,2,1,"","Younger"
"296",296,"ya_12","36_unexpected","Salon","unexpected","j","j",1,1344,2,1,1,1,1,2,1,"","Younger"
"297",297,"ya_12","11_unseen","Zuneigung",NA,"n","n",1,1203,2,1,1,1,1,2,1,"","Younger"
"298",298,"ya_12","16_unexpected","Bus","unexpected","j","j",1,1179,2,1,1,1,1,2,1,"","Younger"
"299",299,"ya_12","19_expected","Fenster","expected","j","j",1,4284,2,1,1,1,1,2,1,"","Younger"
"300",300,"ya_12","39_unseen","Makler",NA,"n","n",1,1800,2,1,1,1,1,2,1,"","Younger"
"301",301,"ya_12","41_expected","Kühe","expected","j","n",0,5176,2,1,1,1,1,2,1,"","Younger"
"302",302,"ya_12","2_unexpected","Gruppe","unexpected","j","j",1,2787,2,1,1,1,1,2,1,"","Younger"
"303",303,"ya_12","42_unexpected","Decke","unexpected","j","n",0,1508,2,1,1,1,1,2,1,"","Younger"
"304",304,"ya_12","21_expected","Wunde","expected","j","n",0,1112,2,1,1,1,1,2,1,"","Younger"
"305",305,"ya_12","37_unseen","Smaragd",NA,"n","n",1,1179,2,1,1,1,1,2,1,"","Younger"
"306",306,"ya_12","45_expected","Ja-Wort","expected","j","n",0,1476,2,1,1,1,1,2,1,"","Younger"
"307",307,"ya_12","28_unseen","Verschluss",NA,"n","n",1,1666,2,1,1,1,1,2,1,"","Younger"
"308",308,"ya_12","21_unseen","Zigaretten",NA,"n","n",1,2799,2,1,1,1,1,2,1,"","Younger"
"309",309,"ya_12","3_unseen","Lippen",NA,"n","n",1,3567,2,1,1,1,1,2,1,"","Younger"
"310",310,"ya_12","36_unseen","Schande",NA,"n","n",1,2089,2,1,1,1,1,2,1,"","Younger"
"311",311,"ya_12","20_unexpected","Ausrüstung","unexpected","j","j",1,1006,2,1,1,1,1,2,1,"","Younger"
"312",312,"ya_12","15_expected","Schlüsseldienst","expected","j","j",1,1030,2,1,1,1,1,2,1,"","Younger"
"313",313,"ya_12","24_unseen","Speisesaal",NA,"n","n",1,4173,2,1,1,1,1,2,1,"","Younger"
"314",314,"ya_12","22_unseen","Pfanne",NA,"n","n",1,2687,2,1,1,1,1,2,1,"","Younger"
"315",315,"ya_12","29_unseen","Materie",NA,"n","n",1,1828,2,1,1,1,1,2,1,"","Younger"
"316",316,"ya_12","18_unseen","Pfadfinder",NA,"n","n",1,4099,2,1,1,1,1,2,1,"","Younger"
"317",317,"ya_12","33_expected","Sonne","expected","j","j",1,1632,2,1,1,1,1,2,1,"","Younger"
"318",318,"ya_12","2_unseen","Technik",NA,"n","n",1,2359,2,1,1,1,1,2,1,"","Younger"
"319",319,"ya_12","48_expected","Wand","expected","j","n",0,1737,2,1,1,1,1,2,1,"","Younger"
"320",320,"ya_12","34_unseen","Hypnose",NA,"n","n",1,1468,2,1,1,1,1,2,1,"","Younger"
"321",321,"ya_13","11_expected","Müll","expected","j","j",1,1641,4,1,3,1,3,4,1,"","Younger"
"322",322,"ya_13","40_unexpected","Vogel","unexpected","j","j",1,1175,4,1,3,1,3,4,1,"","Younger"
"323",323,"ya_13","23_expected","Zug","expected","j","n",0,1504,4,1,3,1,3,4,1,"","Younger"
"324",324,"ya_13","38_unseen","Felsen",NA,"n","n",1,1108,4,1,3,1,3,4,1,"","Younger"
"325",325,"ya_13","9_unseen","Sekunde",NA,"n","n",1,1464,4,1,3,1,3,4,1,"","Younger"
"326",326,"ya_13","12_unseen","Wunsch",NA,"n","n",1,1389,4,1,3,1,3,4,1,"","Younger"
"327",327,"ya_13","33_unseen","Weste",NA,"n","n",1,1902,4,1,3,1,3,4,1,"","Younger"
"328",328,"ya_13","30_unexpected","Geschäft","unexpected","j","j",1,834,4,1,3,1,3,4,1,"","Younger"
"329",329,"ya_13","3_expected","Tür","expected","j","n",0,1960,4,1,3,1,3,4,1,"","Younger"
"330",330,"ya_13","25_expected","Flagge","expected","j","j",1,930,4,1,3,1,3,4,1,"","Younger"
"331",331,"ya_13","43_expected","Stall","expected","j","n",0,1501,4,1,3,1,3,4,1,"","Younger"
"332",332,"ya_13","35_unseen","Mozart",NA,"n","n",1,1473,4,1,3,1,3,4,1,"","Younger"
"333",333,"ya_13","12_unexpected","Bart","unexpected","j","j",1,774,4,1,3,1,3,4,1,"","Younger"
"334",334,"ya_13","17_unseen","Brüder",NA,"n","n",1,887,4,1,3,1,3,4,1,"","Younger"
"335",335,"ya_13","40_unseen","Türke",NA,"n","n",1,1107,4,1,3,1,3,4,1,"","Younger"
"336",336,"ya_13","1_unseen","Käsekuchen",NA,"n","n",1,1911,4,1,3,1,3,4,1,"","Younger"
"337",337,"ya_13","49_unexpected","Umschlag","unexpected","j","n",0,1459,4,1,3,1,3,4,1,"","Younger"
"338",338,"ya_13","32_unseen","Buchstaben",NA,"n","n",1,1585,4,1,3,1,3,4,1,"","Younger"
"339",339,"ya_13","25_unseen","Einzelkind",NA,"n","n",1,986,4,1,3,1,3,4,1,"","Younger"
"340",340,"ya_13","31_unseen","Salami",NA,"n","n",1,842,4,1,3,1,3,4,1,"","Younger"
"341",341,"ya_13","22_unexpected","Badewanne","unexpected","j","j",1,704,4,1,3,1,3,4,1,"","Younger"
"342",342,"ya_13","23_unseen","Röhre",NA,"n","n",1,876,4,1,3,1,3,4,1,"","Younger"
"343",343,"ya_13","24_unexpected","Gegend","unexpected","j","n",0,1705,4,1,3,1,3,4,1,"","Younger"
"344",344,"ya_13","14_unexpected","Weihnachtsmann","unexpected","j","j",1,1269,4,1,3,1,3,4,1,"","Younger"
"345",345,"ya_13","4_unseen","Unterricht",NA,"n","n",1,1682,4,1,3,1,3,4,1,"","Younger"
"346",346,"ya_13","34_unexpected","Hotelzimmer","unexpected","j","j",1,1055,4,1,3,1,3,4,1,"","Younger"
"347",347,"ya_13","17_expected","Rätsel","expected","j","j",1,884,4,1,3,1,3,4,1,"","Younger"
"348",348,"ya_13","10_unexpected","Rose","unexpected","j","j",1,1641,4,1,3,1,3,4,1,"","Younger"
"349",349,"ya_13","14_unseen","Fahrzeuge",NA,"n","n",1,1007,4,1,3,1,3,4,1,"","Younger"
"350",350,"ya_13","44_unexpected","Vorhang","unexpected","j","j",1,855,4,1,3,1,3,4,1,"","Younger"
"351",351,"ya_13","20_unseen","Wüste",NA,"n","j",0,1261,4,1,3,1,3,4,1,"","Younger"
"352",352,"ya_13","4_unexpected","Bauch","unexpected","j","j",1,883,4,1,3,1,3,4,1,"","Younger"
"353",353,"ya_13","13_unseen","Frosch",NA,"n","n",1,1319,4,1,3,1,3,4,1,"","Younger"
"354",354,"ya_13","26_unexpected","Ratte","unexpected","j","j",1,770,4,1,3,1,3,4,1,"","Younger"
"355",355,"ya_13","38_unexpected","Computer","unexpected","j","n",0,1995,4,1,3,1,3,4,1,"","Younger"
"356",356,"ya_13","31_expected","Teig","expected","j","j",1,1108,4,1,3,1,3,4,1,"","Younger"
"357",357,"ya_13","47_unexpected","Fensterrahmen","unexpected","j","j",1,936,4,1,3,1,3,4,1,"","Younger"
"358",358,"ya_13","10_unseen","Zwerge",NA,"n","n",1,930,4,1,3,1,3,4,1,"","Younger"
"359",359,"ya_13","8_unexpected","Osten","unexpected","j","j",1,773,4,1,3,1,3,4,1,"","Younger"
"360",360,"ya_13","9_expected","Ziel","expected","j","n",0,1406,4,1,3,1,3,4,1,"","Younger"
"361",361,"ya_13","5_unseen","Kopfgeld",NA,"n","n",1,870,4,1,3,1,3,4,1,"","Younger"
"362",362,"ya_13","15_unseen","Künstlerin",NA,"n","n",1,2091,4,1,3,1,3,4,1,"","Younger"
"363",363,"ya_13","39_expected","Apotheke","expected","j","j",1,816,4,1,3,1,3,4,1,"","Younger"
"364",364,"ya_13","35_expected","Nase","expected","j","n",0,1351,4,1,3,1,3,4,1,"","Younger"
"365",365,"ya_13","27_unseen","Bildschirm",NA,"n","n",1,1240,4,1,3,1,3,4,1,"","Younger"
"366",366,"ya_13","7_expected","Schiff","expected","j","n",0,1750,4,1,3,1,3,4,1,"","Younger"
"367",367,"ya_13","26_unseen","Märchen",NA,"n","n",1,2240,4,1,3,1,3,4,1,"","Younger"
"368",368,"ya_13","19_unseen","Bombe",NA,"n","n",1,863,4,1,3,1,3,4,1,"","Younger"
"369",369,"ya_13","27_expected","Herd","expected","j","n",0,1108,4,1,3,1,3,4,1,"","Younger"
"370",370,"ya_13","16_unseen","Antarktis",NA,"n","n",1,776,4,1,3,1,3,4,1,"","Younger"
"371",371,"ya_13","29_expected","Geheimnis","expected","j","j",1,1153,4,1,3,1,3,4,1,"","Younger"
"372",372,"ya_13","7_unseen","Zeichnung",NA,"n","n",1,1139,4,1,3,1,3,4,1,"","Younger"
"373",373,"ya_13","6_unseen","Gipfel",NA,"n","n",1,877,4,1,3,1,3,4,1,"","Younger"
"374",374,"ya_13","30_unseen","Toaster",NA,"n","n",1,762,4,1,3,1,3,4,1,"","Younger"
"375",375,"ya_13","8_unseen","Schutt",NA,"n","n",1,1292,4,1,3,1,3,4,1,"","Younger"
"376",376,"ya_13","36_unexpected","Salon","unexpected","j","j",1,840,4,1,3,1,3,4,1,"","Younger"
"377",377,"ya_13","11_unseen","Zuneigung",NA,"n","n",1,1351,4,1,3,1,3,4,1,"","Younger"
"378",378,"ya_13","16_unexpected","Bus","unexpected","j","n",0,1385,4,1,3,1,3,4,1,"","Younger"
"379",379,"ya_13","19_expected","Fenster","expected","j","j",1,2177,4,1,3,1,3,4,1,"","Younger"
"380",380,"ya_13","39_unseen","Makler",NA,"n","n",1,802,4,1,3,1,3,4,1,"","Younger"
"381",381,"ya_13","41_expected","Kühe","expected","j","n",0,922,4,1,3,1,3,4,1,"","Younger"
"382",382,"ya_13","2_unexpected","Gruppe","unexpected","j","n",0,1413,4,1,3,1,3,4,1,"","Younger"
"383",383,"ya_13","42_unexpected","Decke","unexpected","j","j",1,917,4,1,3,1,3,4,1,"","Younger"
"384",384,"ya_13","21_expected","Wunde","expected","j","n",0,880,4,1,3,1,3,4,1,"","Younger"
"385",385,"ya_13","37_unseen","Smaragd",NA,"n","n",1,821,4,1,3,1,3,4,1,"","Younger"
"386",386,"ya_13","45_expected","Ja-Wort","expected","j","j",1,2460,4,1,3,1,3,4,1,"","Younger"
"387",387,"ya_13","28_unseen","Verschluss",NA,"n","n",1,858,4,1,3,1,3,4,1,"","Younger"
"388",388,"ya_13","21_unseen","Zigaretten",NA,"n","n",1,952,4,1,3,1,3,4,1,"","Younger"
"389",389,"ya_13","3_unseen","Lippen",NA,"n","n",1,1122,4,1,3,1,3,4,1,"","Younger"
"390",390,"ya_13","36_unseen","Schande",NA,"n","n",1,789,4,1,3,1,3,4,1,"","Younger"
"391",391,"ya_13","20_unexpected","Ausrüstung","unexpected","j","j",1,877,4,1,3,1,3,4,1,"","Younger"
"392",392,"ya_13","15_expected","Schlüsseldienst","expected","j","j",1,1018,4,1,3,1,3,4,1,"","Younger"
"393",393,"ya_13","24_unseen","Speisesaal",NA,"n","n",1,1001,4,1,3,1,3,4,1,"","Younger"
"394",394,"ya_13","22_unseen","Pfanne",NA,"n","n",1,1265,4,1,3,1,3,4,1,"","Younger"
"395",395,"ya_13","29_unseen","Materie",NA,"n","n",1,894,4,1,3,1,3,4,1,"","Younger"
"396",396,"ya_13","18_unseen","Pfadfinder",NA,"n","n",1,626,4,1,3,1,3,4,1,"","Younger"
"397",397,"ya_13","33_expected","Sonne","expected","j","j",1,1161,4,1,3,1,3,4,1,"","Younger"
"398",398,"ya_13","2_unseen","Technik",NA,"n","n",1,899,4,1,3,1,3,4,1,"","Younger"
"399",399,"ya_13","48_expected","Wand","expected","j","n",0,1655,4,1,3,1,3,4,1,"","Younger"
"400",400,"ya_13","34_unseen","Hypnose",NA,"n","n",1,781,4,1,3,1,3,4,1,"","Younger"
"401",401,"ya_14","13_unexpected","Couch","unexpected","j","j",1,4879,1,2,2,2,2,1,2,"","Younger"
"402",402,"ya_14","14_unseen","Fahrzeuge",NA,"n","j",0,4493,1,2,2,2,2,1,2,"","Younger"
"403",403,"ya_14","5_unexpected","Grundstück","unexpected","j","j",1,1251,1,2,2,2,2,1,2,"","Younger"
"404",404,"ya_14","7_unseen","Zeichnung",NA,"n","n",1,1432,1,2,2,2,2,1,2,"","Younger"
"405",405,"ya_14","48_unexpected","Dachboden","unexpected","j","j",1,2150,1,2,2,2,2,1,2,"","Younger"
"406",406,"ya_14","11_unseen","Zuneigung",NA,"n","n",1,1664,1,2,2,2,2,1,2,"","Younger"
"407",407,"ya_14","19_unexpected","Klappe","unexpected","j","j",1,1230,1,2,2,2,2,1,2,"","Younger"
"408",408,"ya_14","4_unseen","Unterricht",NA,"n","j",0,2653,1,2,2,2,2,1,2,"","Younger"
"409",409,"ya_14","42_expected","Boden","expected","j","j",1,2475,1,2,2,2,2,1,2,"","Younger"
"410",410,"ya_14","36_unseen","Schande",NA,"n","n",1,993,1,2,2,2,2,1,2,"","Younger"
"411",411,"ya_14","40_expected","Affen","expected","j","j",1,2697,1,2,2,2,2,1,2,"","Younger"
"412",412,"ya_14","6_unseen","Gipfel",NA,"n","n",1,1381,1,2,2,2,2,1,2,"","Younger"
"413",413,"ya_14","39_unexpected","Hospital","unexpected","j","j",1,718,1,2,2,2,2,1,2,"","Younger"
"414",414,"ya_14","3_unexpected","Haus","unexpected","j","j",1,929,1,2,2,2,2,1,2,"","Younger"
"415",415,"ya_14","30_unseen","Toaster",NA,"n","n",1,852,1,2,2,2,2,1,2,"","Younger"
"416",416,"ya_14","20_expected","Fahrrad","expected","j","j",1,809,1,2,2,2,2,1,2,"","Younger"
"417",417,"ya_14","32_unseen","Buchstaben",NA,"n","n",1,1289,1,2,2,2,2,1,2,"","Younger"
"418",418,"ya_14","4_expected","Zähne","expected","j","j",1,1373,1,2,2,2,2,1,2,"","Younger"
"419",419,"ya_14","5_unseen","Kopfgeld",NA,"n","n",1,1631,1,2,2,2,2,1,2,"","Younger"
"420",420,"ya_14","9_unexpected","Menge","unexpected","j","j",1,1365,1,2,2,2,2,1,2,"","Younger"
"421",421,"ya_14","8_expected","Berge","expected","j","n",0,1318,1,2,2,2,2,1,2,"","Younger"
"422",422,"ya_14","15_unseen","Künstlerin",NA,"n","n",1,1665,1,2,2,2,2,1,2,"","Younger"
"423",423,"ya_14","6_expected","Tisch","expected","j","j",1,1039,1,2,2,2,2,1,2,"","Younger"
"424",424,"ya_14","34_expected","Bäckerei","expected","j","j",1,845,1,2,2,2,2,1,2,"","Younger"
"425",425,"ya_14","1_unseen","Käsekuchen",NA,"n","n",1,1123,1,2,2,2,2,1,2,"","Younger"
"426",426,"ya_14","38_expected","Licht","expected","j","j",1,1158,1,2,2,2,2,1,2,"","Younger"
"427",427,"ya_14","23_unseen","Röhre",NA,"n","n",1,960,1,2,2,2,2,1,2,"","Younger"
"428",428,"ya_14","14_expected","Ferien","expected","j","j",1,1874,1,2,2,2,2,1,2,"","Younger"
"429",429,"ya_14","39_unseen","Makler",NA,"n","n",1,1519,1,2,2,2,2,1,2,"","Younger"
"430",430,"ya_14","2_unseen","Technik",NA,"n","n",1,890,1,2,2,2,2,1,2,"","Younger"
"431",431,"ya_14","18_expected","Orchester","expected","j","j",1,1423,1,2,2,2,2,1,2,"","Younger"
"432",432,"ya_14","37_unseen","Smaragd",NA,"n","n",1,1198,1,2,2,2,2,1,2,"","Younger"
"433",433,"ya_14","45_unexpected","Antwort","unexpected","j","j",1,1830,1,2,2,2,2,1,2,"","Younger"
"434",434,"ya_14","10_unseen","Zwerge",NA,"n","n",1,773,1,2,2,2,2,1,2,"","Younger"
"435",435,"ya_14","17_unseen","Brüder",NA,"n","n",1,2870,1,2,2,2,2,1,2,"","Younger"
"436",436,"ya_14","7_unexpected","Wagen","unexpected","j","j",1,1564,1,2,2,2,2,1,2,"","Younger"
"437",437,"ya_14","37_unexpected","Waffe","unexpected","j","j",1,1014,1,2,2,2,2,1,2,"","Younger"
"438",438,"ya_14","40_unseen","Türke",NA,"n","n",1,781,1,2,2,2,2,1,2,"","Younger"
"439",439,"ya_14","29_unseen","Materie",NA,"n","n",1,1462,1,2,2,2,2,1,2,"","Younger"
"440",440,"ya_14","49_expected","Paket","expected","j","n",0,1907,1,2,2,2,2,1,2,"","Younger"
"441",441,"ya_14","17_unexpected","Herausforderung","unexpected","j","n",0,2079,1,2,2,2,2,1,2,"","Younger"
"442",442,"ya_14","25_unexpected","Wappen","unexpected","j","n",0,2877,1,2,2,2,2,1,2,"","Younger"
"443",443,"ya_14","43_unexpected","Gatter","unexpected","j","j",1,891,1,2,2,2,2,1,2,"","Younger"
"444",444,"ya_14","13_unseen","Frosch",NA,"n","n",1,1935,1,2,2,2,2,1,2,"","Younger"
"445",445,"ya_14","3_unseen","Lippen",NA,"n","j",0,1738,1,2,2,2,2,1,2,"","Younger"
"446",446,"ya_14","35_unexpected","Mund","unexpected","j","j",1,796,1,2,2,2,2,1,2,"","Younger"
"447",447,"ya_14","33_unseen","Weste",NA,"n","n",1,996,1,2,2,2,2,1,2,"","Younger"
"448",448,"ya_14","16_unseen","Antarktis",NA,"n","n",1,1901,1,2,2,2,2,1,2,"","Younger"
"449",449,"ya_14","25_unseen","Einzelkind",NA,"n","n",1,3921,1,2,2,2,2,1,2,"","Younger"
"450",450,"ya_14","28_unseen","Verschluss",NA,"n","n",1,3605,1,2,2,2,2,1,2,"","Younger"
"451",451,"ya_14","31_unexpected","Watte","unexpected","j","j",1,1285,1,2,2,2,2,1,2,"","Younger"
"452",452,"ya_14","19_unseen","Bombe",NA,"n","n",1,698,1,2,2,2,2,1,2,"","Younger"
"453",453,"ya_14","2_expected","Auto","expected","j","j",1,1254,1,2,2,2,2,1,2,"","Younger"
"454",454,"ya_14","12_unseen","Wunsch",NA,"n","n",1,859,1,2,2,2,2,1,2,"","Younger"
"455",455,"ya_14","36_expected","Sauna","expected","j","j",1,705,1,2,2,2,2,1,2,"","Younger"
"456",456,"ya_14","16_expected","Schloss","expected","j","n",0,1013,1,2,2,2,2,1,2,"","Younger"
"457",457,"ya_14","10_expected","Band","expected","j","j",1,1348,1,2,2,2,2,1,2,"","Younger"
"458",458,"ya_14","8_unseen","Schutt",NA,"n","n",1,862,1,2,2,2,2,1,2,"","Younger"
"459",459,"ya_14","24_unseen","Speisesaal",NA,"n","n",1,956,1,2,2,2,2,1,2,"","Younger"
"460",460,"ya_14","1_unexpected","Schlafzimmer","unexpected","j","j",1,701,1,2,2,2,2,1,2,"","Younger"
"461",461,"ya_14","27_unseen","Bildschirm",NA,"n","j",0,2185,1,2,2,2,2,1,2,"","Younger"
"462",462,"ya_14","27_unexpected","Platte","unexpected","j","j",1,1306,1,2,2,2,2,1,2,"","Younger"
"463",463,"ya_14","28_expected","Briefkasten","expected","j","j",1,878,1,2,2,2,2,1,2,"","Younger"
"464",464,"ya_14","20_unseen","Wüste",NA,"n","n",1,1635,1,2,2,2,2,1,2,"","Younger"
"465",465,"ya_14","9_unseen","Sekunde",NA,"n","n",1,1481,1,2,2,2,2,1,2,"","Younger"
"466",466,"ya_14","24_expected","Wald","expected","j","n",0,1030,1,2,2,2,2,1,2,"","Younger"
"467",467,"ya_14","35_unseen","Mozart",NA,"n","n",1,1389,1,2,2,2,2,1,2,"","Younger"
"468",468,"ya_14","18_unseen","Pfadfinder",NA,"n","n",1,789,1,2,2,2,2,1,2,"","Younger"
"469",469,"ya_14","15_unexpected","Untermieterin","unexpected","j","j",1,2046,1,2,2,2,2,1,2,"","Younger"
"470",470,"ya_14","30_expected","Polizei","expected","j","j",1,2724,1,2,2,2,2,1,2,"","Younger"
"471",471,"ya_14","34_unseen","Hypnose",NA,"n","n",1,760,1,2,2,2,2,1,2,"","Younger"
"472",472,"ya_14","22_expected","Kühlschrank","expected","j","j",1,882,1,2,2,2,2,1,2,"","Younger"
"473",473,"ya_14","22_unseen","Pfanne",NA,"n","n",1,2230,1,2,2,2,2,1,2,"","Younger"
"474",474,"ya_14","38_unseen","Felsen",NA,"n","n",1,1061,1,2,2,2,2,1,2,"","Younger"
"475",475,"ya_14","21_unexpected","Offizier","unexpected","j","n",0,1019,1,2,2,2,2,1,2,"","Younger"
"476",476,"ya_14","31_unseen","Salami",NA,"n","n",1,866,1,2,2,2,2,1,2,"","Younger"
"477",477,"ya_14","26_unseen","Märchen",NA,"n","j",0,2415,1,2,2,2,2,1,2,"","Younger"
"478",478,"ya_14","47_expected","Tür","expected","j","j",1,1447,1,2,2,2,2,1,2,"","Younger"
"479",479,"ya_14","41_unexpected","Bock","unexpected","j","j",1,949,1,2,2,2,2,1,2,"","Younger"
"480",480,"ya_14","21_unseen","Zigaretten",NA,"n","n",1,1943,1,2,2,2,2,1,2,"","Younger"
"481",481,"ya_15","11_expected","Müll","expected","j","n",0,2140,2,2,3,1,3,3,2,"","Younger"
"482",482,"ya_15","40_unexpected","Vogel","unexpected","j","n",0,2519,2,2,3,1,3,3,2,"","Younger"
"483",483,"ya_15","23_expected","Zug","expected","j","j",1,1491,2,2,3,1,3,3,2,"","Younger"
"484",484,"ya_15","38_unseen","Felsen",NA,"n","n",1,5127,2,2,3,1,3,3,2,"","Younger"
"485",485,"ya_15","9_unseen","Sekunde",NA,"n","n",1,3388,2,2,3,1,3,3,2,"","Younger"
"486",486,"ya_15","12_unseen","Wunsch",NA,"n","n",1,5037,2,2,3,1,3,3,2,"","Younger"
"487",487,"ya_15","33_unseen","Weste",NA,"n","n",1,2741,2,2,3,1,3,3,2,"","Younger"
"488",488,"ya_15","30_unexpected","Geschäft","unexpected","j","j",1,2256,2,2,3,1,3,3,2,"","Younger"
"489",489,"ya_15","3_expected","Tür","expected","j","j",1,1366,2,2,3,1,3,3,2,"","Younger"
"490",490,"ya_15","25_expected","Flagge","expected","j","j",1,4623,2,2,3,1,3,3,2,"","Younger"
"491",491,"ya_15","43_expected","Stall","expected","j","j",1,1935,2,2,3,1,3,3,2,"","Younger"
"492",492,"ya_15","35_unseen","Mozart",NA,"n","n",1,3929,2,2,3,1,3,3,2,"","Younger"
"493",493,"ya_15","12_unexpected","Bart","unexpected","j","j",1,1870,2,2,3,1,3,3,2,"","Younger"
"494",494,"ya_15","17_unseen","Brüder",NA,"n","n",1,8915,2,2,3,1,3,3,2,"","Younger"
"495",495,"ya_15","40_unseen","Türke",NA,"n","n",1,3401,2,2,3,1,3,3,2,"","Younger"
"496",496,"ya_15","1_unseen","Käsekuchen",NA,"n","n",1,3345,2,2,3,1,3,3,2,"","Younger"
"497",497,"ya_15","49_unexpected","Umschlag","unexpected","j","j",1,1245,2,2,3,1,3,3,2,"","Younger"
"498",498,"ya_15","32_unseen","Buchstaben",NA,"n","n",1,3467,2,2,3,1,3,3,2,"","Younger"
"499",499,"ya_15","25_unseen","Einzelkind",NA,"n","n",1,5225,2,2,3,1,3,3,2,"","Younger"
"500",500,"ya_15","31_unseen","Salami",NA,"n","n",1,1946,2,2,3,1,3,3,2,"","Younger"
"501",501,"ya_15","22_unexpected","Badewanne","unexpected","j","j",1,1100,2,2,3,1,3,3,2,"","Younger"
"502",502,"ya_15","23_unseen","Röhre",NA,"n","n",1,2536,2,2,3,1,3,3,2,"","Younger"
"503",503,"ya_15","24_unexpected","Gegend","unexpected","j","j",1,6882,2,2,3,1,3,3,2,"","Younger"
"504",504,"ya_15","14_unexpected","Weihnachtsmann","unexpected","j","j",1,1057,2,2,3,1,3,3,2,"","Younger"
"505",505,"ya_15","4_unseen","Unterricht",NA,"n","n",1,3358,2,2,3,1,3,3,2,"","Younger"
"506",506,"ya_15","34_unexpected","Hotelzimmer","unexpected","j","j",1,937,2,2,3,1,3,3,2,"","Younger"
"507",507,"ya_15","17_expected","Rätsel","expected","j","n",0,4051,2,2,3,1,3,3,2,"","Younger"
"508",508,"ya_15","10_unexpected","Rose","unexpected","j","j",1,1090,2,2,3,1,3,3,2,"","Younger"
"509",509,"ya_15","14_unseen","Fahrzeuge",NA,"n","n",1,3127,2,2,3,1,3,3,2,"","Younger"
"510",510,"ya_15","44_unexpected","Vorhang","unexpected","j","j",1,874,2,2,3,1,3,3,2,"","Younger"
"511",511,"ya_15","20_unseen","Wüste",NA,"n","n",1,2639,2,2,3,1,3,3,2,"","Younger"
"512",512,"ya_15","4_unexpected","Bauch","unexpected","j","j",1,974,2,2,3,1,3,3,2,"","Younger"
"513",513,"ya_15","13_unseen","Frosch",NA,"n","n",1,1311,2,2,3,1,3,3,2,"","Younger"
"514",514,"ya_15","26_unexpected","Ratte","unexpected","j","j",1,3707,2,2,3,1,3,3,2,"","Younger"
"515",515,"ya_15","38_unexpected","Computer","unexpected","j","j",1,2480,2,2,3,1,3,3,2,"","Younger"
"516",516,"ya_15","31_expected","Teig","expected","j","j",1,1246,2,2,3,1,3,3,2,"","Younger"
"517",517,"ya_15","47_unexpected","Fensterrahmen","unexpected","j","j",1,1236,2,2,3,1,3,3,2,"","Younger"
"518",518,"ya_15","10_unseen","Zwerge",NA,"n","n",1,2067,2,2,3,1,3,3,2,"","Younger"
"519",519,"ya_15","8_unexpected","Osten","unexpected","j","j",1,1703,2,2,3,1,3,3,2,"","Younger"
"520",520,"ya_15","9_expected","Ziel","expected","j","j",1,3723,2,2,3,1,3,3,2,"","Younger"
"521",521,"ya_15","5_unseen","Kopfgeld",NA,"n","n",1,1311,2,2,3,1,3,3,2,"","Younger"
"522",522,"ya_15","15_unseen","Künstlerin",NA,"n","n",1,3811,2,2,3,1,3,3,2,"","Younger"
"523",523,"ya_15","39_expected","Apotheke","expected","j","j",1,1828,2,2,3,1,3,3,2,"","Younger"
"524",524,"ya_15","35_expected","Nase","expected","j","j",1,1771,2,2,3,1,3,3,2,"","Younger"
"525",525,"ya_15","27_unseen","Bildschirm",NA,"n","n",1,3900,2,2,3,1,3,3,2,"","Younger"
"526",526,"ya_15","7_expected","Schiff","expected","j","j",1,1145,2,2,3,1,3,3,2,"","Younger"
"527",527,"ya_15","26_unseen","Märchen",NA,"n","n",1,3980,2,2,3,1,3,3,2,"","Younger"
"528",528,"ya_15","19_unseen","Bombe",NA,"n","n",1,2838,2,2,3,1,3,3,2,"","Younger"
"529",529,"ya_15","27_expected","Herd","expected","j","j",1,1245,2,2,3,1,3,3,2,"","Younger"
"530",530,"ya_15","16_unseen","Antarktis",NA,"n","n",1,1411,2,2,3,1,3,3,2,"","Younger"
"531",531,"ya_15","29_expected","Geheimnis","expected","j","n",0,8299,2,2,3,1,3,3,2,"","Younger"
"532",532,"ya_15","7_unseen","Zeichnung",NA,"n","n",1,3984,2,2,3,1,3,3,2,"","Younger"
"533",533,"ya_15","6_unseen","Gipfel",NA,"n","n",1,1882,2,2,3,1,3,3,2,"","Younger"
"534",534,"ya_15","30_unseen","Toaster",NA,"n","n",1,1535,2,2,3,1,3,3,2,"","Younger"
"535",535,"ya_15","8_unseen","Schutt",NA,"n","j",0,1937,2,2,3,1,3,3,2,"","Younger"
"536",536,"ya_15","36_unexpected","Salon","unexpected","j","j",1,1572,2,2,3,1,3,3,2,"","Younger"
"537",537,"ya_15","11_unseen","Zuneigung",NA,"n","n",1,2125,2,2,3,1,3,3,2,"","Younger"
"538",538,"ya_15","16_unexpected","Bus","unexpected","j","n",0,4985,2,2,3,1,3,3,2,"","Younger"
"539",539,"ya_15","19_expected","Fenster","expected","j","n",0,2643,2,2,3,1,3,3,2,"","Younger"
"540",540,"ya_15","39_unseen","Makler",NA,"n","n",1,1890,2,2,3,1,3,3,2,"","Younger"
"541",541,"ya_15","41_expected","Kühe","expected","j","j",1,1854,2,2,3,1,3,3,2,"","Younger"
"542",542,"ya_15","2_unexpected","Gruppe","unexpected","j","j",1,4212,2,2,3,1,3,3,2,"","Younger"
"543",543,"ya_15","42_unexpected","Decke","unexpected","j","j",1,1149,2,2,3,1,3,3,2,"","Younger"
"544",544,"ya_15","21_expected","Wunde","expected","j","j",1,879,2,2,3,1,3,3,2,"","Younger"
"545",545,"ya_15","37_unseen","Smaragd",NA,"n","n",1,1196,2,2,3,1,3,3,2,"","Younger"
"546",546,"ya_15","45_expected","Ja-Wort","expected","j","n",0,3804,2,2,3,1,3,3,2,"","Younger"
"547",547,"ya_15","28_unseen","Verschluss",NA,"n","n",1,2093,2,2,3,1,3,3,2,"","Younger"
"548",548,"ya_15","21_unseen","Zigaretten",NA,"n","n",1,7545,2,2,3,1,3,3,2,"","Younger"
"549",549,"ya_15","3_unseen","Lippen",NA,"n","n",1,4109,2,2,3,1,3,3,2,"","Younger"
"550",550,"ya_15","36_unseen","Schande",NA,"n","n",1,1698,2,2,3,1,3,3,2,"","Younger"
"551",551,"ya_15","20_unexpected","Ausrüstung","unexpected","j","j",1,1438,2,2,3,1,3,3,2,"","Younger"
"552",552,"ya_15","15_expected","Schlüsseldienst","expected","j","j",1,1092,2,2,3,1,3,3,2,"","Younger"
"553",553,"ya_15","24_unseen","Speisesaal",NA,"n","n",1,1313,2,2,3,1,3,3,2,"","Younger"
"554",554,"ya_15","22_unseen","Pfanne",NA,"n","n",1,2581,2,2,3,1,3,3,2,"","Younger"
"555",555,"ya_15","29_unseen","Materie",NA,"n","n",1,2070,2,2,3,1,3,3,2,"","Younger"
"556",556,"ya_15","18_unseen","Pfadfinder",NA,"n","n",1,2075,2,2,3,1,3,3,2,"","Younger"
"557",557,"ya_15","33_expected","Sonne","expected","j","j",1,4785,2,2,3,1,3,3,2,"","Younger"
"558",558,"ya_15","2_unseen","Technik",NA,"n","n",1,2050,2,2,3,1,3,3,2,"","Younger"
"559",559,"ya_15","48_expected","Wand","expected","j","n",0,2344,2,2,3,1,3,3,2,"","Younger"
"560",560,"ya_15","34_unseen","Hypnose",NA,"n","n",1,1035,2,2,3,1,3,3,2,"","Younger"
"561",561,"ya_16","13_unexpected","Couch","unexpected","j","j",1,1234,1,1,2,2,2,2,1,"","Younger"
"562",562,"ya_16","14_unseen","Fahrzeuge",NA,"n","n",1,3248,1,1,2,2,2,2,1,"","Younger"
"563",563,"ya_16","5_unexpected","Grundstück","unexpected","j","j",1,1151,1,1,2,2,2,2,1,"","Younger"
"564",564,"ya_16","7_unseen","Zeichnung",NA,"n","j",0,1832,1,1,2,2,2,2,1,"","Younger"
"565",565,"ya_16","48_unexpected","Dachboden","unexpected","j","j",1,943,1,1,2,2,2,2,1,"","Younger"
"566",566,"ya_16","11_unseen","Zuneigung",NA,"n","n",1,1018,1,1,2,2,2,2,1,"","Younger"
"567",567,"ya_16","19_unexpected","Klappe","unexpected","j","n",0,1865,1,1,2,2,2,2,1,"","Younger"
"568",568,"ya_16","4_unseen","Unterricht",NA,"n","n",1,1614,1,1,2,2,2,2,1,"","Younger"
"569",569,"ya_16","42_expected","Boden","expected","j","j",1,957,1,1,2,2,2,2,1,"","Younger"
"570",570,"ya_16","36_unseen","Schande",NA,"n","n",1,999,1,1,2,2,2,2,1,"","Younger"
"571",571,"ya_16","40_expected","Affen","expected","j","j",1,2239,1,1,2,2,2,2,1,"","Younger"
"572",572,"ya_16","6_unseen","Gipfel",NA,"n","n",1,846,1,1,2,2,2,2,1,"","Younger"
"573",573,"ya_16","39_unexpected","Hospital","unexpected","j","j",1,908,1,1,2,2,2,2,1,"","Younger"
"574",574,"ya_16","3_unexpected","Haus","unexpected","j","j",1,1032,1,1,2,2,2,2,1,"","Younger"
"575",575,"ya_16","30_unseen","Toaster",NA,"n","n",1,1021,1,1,2,2,2,2,1,"","Younger"
"576",576,"ya_16","20_expected","Fahrrad","expected","j","j",1,1020,1,1,2,2,2,2,1,"","Younger"
"577",577,"ya_16","32_unseen","Buchstaben",NA,"n","n",1,1363,1,1,2,2,2,2,1,"","Younger"
"578",578,"ya_16","4_expected","Zähne","expected","j","n",0,1141,1,1,2,2,2,2,1,"","Younger"
"579",579,"ya_16","5_unseen","Kopfgeld",NA,"n","n",1,880,1,1,2,2,2,2,1,"","Younger"
"580",580,"ya_16","9_unexpected","Menge","unexpected","j","n",0,1117,1,1,2,2,2,2,1,"","Younger"
"581",581,"ya_16","8_expected","Berge","expected","j","j",1,1008,1,1,2,2,2,2,1,"","Younger"
"582",582,"ya_16","15_unseen","Künstlerin",NA,"n","j",0,2215,1,1,2,2,2,2,1,"","Younger"
"583",583,"ya_16","6_expected","Tisch","expected","j","j",1,2487,1,1,2,2,2,2,1,"","Younger"
"584",584,"ya_16","34_expected","Bäckerei","expected","j","j",1,740,1,1,2,2,2,2,1,"","Younger"
"585",585,"ya_16","1_unseen","Käsekuchen",NA,"n","n",1,910,1,1,2,2,2,2,1,"","Younger"
"586",586,"ya_16","38_expected","Licht","expected","j","j",1,1298,1,1,2,2,2,2,1,"","Younger"
"587",587,"ya_16","23_unseen","Röhre",NA,"n","n",1,950,1,1,2,2,2,2,1,"","Younger"
"588",588,"ya_16","14_expected","Ferien","expected","j","j",1,1536,1,1,2,2,2,2,1,"","Younger"
"589",589,"ya_16","39_unseen","Makler",NA,"n","n",1,890,1,1,2,2,2,2,1,"","Younger"
"590",590,"ya_16","2_unseen","Technik",NA,"n","n",1,1031,1,1,2,2,2,2,1,"","Younger"
"591",591,"ya_16","18_expected","Orchester","expected","j","j",1,1478,1,1,2,2,2,2,1,"","Younger"
"592",592,"ya_16","37_unseen","Smaragd",NA,"n","n",1,899,1,1,2,2,2,2,1,"","Younger"
"593",593,"ya_16","45_unexpected","Antwort","unexpected","j","n",0,1087,1,1,2,2,2,2,1,"","Younger"
"594",594,"ya_16","10_unseen","Zwerge",NA,"n","n",1,4059,1,1,2,2,2,2,1,"","Younger"
"595",595,"ya_16","17_unseen","Brüder",NA,"n","j",0,1289,1,1,2,2,2,2,1,"","Younger"
"596",596,"ya_16","7_unexpected","Wagen","unexpected","j","j",1,1373,1,1,2,2,2,2,1,"","Younger"
"597",597,"ya_16","37_unexpected","Waffe","unexpected","j","n",0,1078,1,1,2,2,2,2,1,"","Younger"
"598",598,"ya_16","40_unseen","Türke",NA,"n","n",1,1076,1,1,2,2,2,2,1,"","Younger"
"599",599,"ya_16","29_unseen","Materie",NA,"n","n",1,881,1,1,2,2,2,2,1,"","Younger"
"600",600,"ya_16","49_expected","Paket","expected","j","j",1,2085,1,1,2,2,2,2,1,"","Younger"
"601",601,"ya_16","17_unexpected","Herausforderung","unexpected","j","n",0,1082,1,1,2,2,2,2,1,"","Younger"
"602",602,"ya_16","25_unexpected","Wappen","unexpected","j","n",0,1070,1,1,2,2,2,2,1,"","Younger"
"603",603,"ya_16","43_unexpected","Gatter","unexpected","j","n",0,923,1,1,2,2,2,2,1,"","Younger"
"604",604,"ya_16","13_unseen","Frosch",NA,"n","n",1,1110,1,1,2,2,2,2,1,"","Younger"
"605",605,"ya_16","3_unseen","Lippen",NA,"n","j",0,1538,1,1,2,2,2,2,1,"","Younger"
"606",606,"ya_16","35_unexpected","Mund","unexpected","j","j",1,1893,1,1,2,2,2,2,1,"","Younger"
"607",607,"ya_16","33_unseen","Weste",NA,"n","n",1,1130,1,1,2,2,2,2,1,"","Younger"
"608",608,"ya_16","16_unseen","Antarktis",NA,"n","n",1,845,1,1,2,2,2,2,1,"","Younger"
"609",609,"ya_16","25_unseen","Einzelkind",NA,"n","j",0,3267,1,1,2,2,2,2,1,"","Younger"
"610",610,"ya_16","28_unseen","Verschluss",NA,"n","j",0,993,1,1,2,2,2,2,1,"","Younger"
"611",611,"ya_16","31_unexpected","Watte","unexpected","j","n",0,953,1,1,2,2,2,2,1,"","Younger"
"612",612,"ya_16","19_unseen","Bombe",NA,"n","n",1,2667,1,1,2,2,2,2,1,"","Younger"
"613",613,"ya_16","2_expected","Auto","expected","j","j",1,1993,1,1,2,2,2,2,1,"","Younger"
"614",614,"ya_16","12_unseen","Wunsch",NA,"n","j",0,1672,1,1,2,2,2,2,1,"","Younger"
"615",615,"ya_16","36_expected","Sauna","expected","j","j",1,646,1,1,2,2,2,2,1,"","Younger"
"616",616,"ya_16","16_expected","Schloss","expected","j","j",1,2252,1,1,2,2,2,2,1,"","Younger"
"617",617,"ya_16","10_expected","Band","expected","j","j",1,754,1,1,2,2,2,2,1,"","Younger"
"618",618,"ya_16","8_unseen","Schutt",NA,"n","j",0,964,1,1,2,2,2,2,1,"","Younger"
"619",619,"ya_16","24_unseen","Speisesaal",NA,"n","j",0,1141,1,1,2,2,2,2,1,"","Younger"
"620",620,"ya_16","1_unexpected","Schlafzimmer","unexpected","j","j",1,1583,1,1,2,2,2,2,1,"","Younger"
"621",621,"ya_16","27_unseen","Bildschirm",NA,"n","n",1,1392,1,1,2,2,2,2,1,"","Younger"
"622",622,"ya_16","27_unexpected","Platte","unexpected","j","j",1,913,1,1,2,2,2,2,1,"","Younger"
"623",623,"ya_16","28_expected","Briefkasten","expected","j","n",0,988,1,1,2,2,2,2,1,"","Younger"
"624",624,"ya_16","20_unseen","Wüste",NA,"n","n",1,829,1,1,2,2,2,2,1,"","Younger"
"625",625,"ya_16","9_unseen","Sekunde",NA,"n","n",1,924,1,1,2,2,2,2,1,"","Younger"
"626",626,"ya_16","24_expected","Wald","expected","j","n",0,1479,1,1,2,2,2,2,1,"","Younger"
"627",627,"ya_16","35_unseen","Mozart",NA,"n","n",1,1380,1,1,2,2,2,2,1,"","Younger"
"628",628,"ya_16","18_unseen","Pfadfinder",NA,"n","n",1,1013,1,1,2,2,2,2,1,"","Younger"
"629",629,"ya_16","15_unexpected","Untermieterin","unexpected","j","j",1,805,1,1,2,2,2,2,1,"","Younger"
"630",630,"ya_16","30_expected","Polizei","expected","j","j",1,1325,1,1,2,2,2,2,1,"","Younger"
"631",631,"ya_16","34_unseen","Hypnose",NA,"n","n",1,768,1,1,2,2,2,2,1,"","Younger"
"632",632,"ya_16","22_expected","Kühlschrank","expected","j","j",1,1241,1,1,2,2,2,2,1,"","Younger"
"633",633,"ya_16","22_unseen","Pfanne",NA,"n","j",0,679,1,1,2,2,2,2,1,"","Younger"
"634",634,"ya_16","38_unseen","Felsen",NA,"n","n",1,1516,1,1,2,2,2,2,1,"","Younger"
"635",635,"ya_16","21_unexpected","Offizier","unexpected","j","j",1,1886,1,1,2,2,2,2,1,"","Younger"
"636",636,"ya_16","31_unseen","Salami",NA,"n","n",1,923,1,1,2,2,2,2,1,"","Younger"
"637",637,"ya_16","26_unseen","Märchen",NA,"n","j",0,3630,1,1,2,2,2,2,1,"","Younger"
"638",638,"ya_16","47_expected","Tür","expected","j","j",1,1190,1,1,2,2,2,2,1,"","Younger"
"639",639,"ya_16","41_unexpected","Bock","unexpected","j","j",1,1670,1,1,2,2,2,2,1,"","Younger"
"640",640,"ya_16","21_unseen","Zigaretten",NA,"n","n",1,1019,1,1,2,2,2,2,1,"","Younger"
"641",641,"ya_17","13_unexpected","Couch","unexpected","j","n",0,643,1,1,4,2,3,4,1,"XXXX","Younger"
"642",642,"ya_17","14_unseen","Fahrzeuge",NA,"n","n",1,633,1,1,4,2,3,4,1,"XXXX","Younger"
"643",643,"ya_17","5_unexpected","Grundstück","unexpected","j","n",0,752,1,1,4,2,3,4,1,"XXXX","Younger"
"644",644,"ya_17","7_unseen","Zeichnung",NA,"n","n",1,569,1,1,4,2,3,4,1,"XXXX","Younger"
"645",645,"ya_17","48_unexpected","Dachboden","unexpected","j","j",1,714,1,1,4,2,3,4,1,"XXXX","Younger"
"646",646,"ya_17","11_unseen","Zuneigung",NA,"n","n",1,654,1,1,4,2,3,4,1,"XXXX","Younger"
"647",647,"ya_17","19_unexpected","Klappe","unexpected","j","n",0,563,1,1,4,2,3,4,1,"XXXX","Younger"
"648",648,"ya_17","4_unseen","Unterricht",NA,"n","j",0,645,1,1,4,2,3,4,1,"XXXX","Younger"
"649",649,"ya_17","42_expected","Boden","expected","j","j",1,603,1,1,4,2,3,4,1,"XXXX","Younger"
"650",650,"ya_17","36_unseen","Schande",NA,"n","n",1,531,1,1,4,2,3,4,1,"XXXX","Younger"
"651",651,"ya_17","40_expected","Affen","expected","j","n",0,566,1,1,4,2,3,4,1,"XXXX","Younger"
"652",652,"ya_17","6_unseen","Gipfel",NA,"n","n",1,606,1,1,4,2,3,4,1,"XXXX","Younger"
"653",653,"ya_17","39_unexpected","Hospital","unexpected","j","n",0,630,1,1,4,2,3,4,1,"XXXX","Younger"
"654",654,"ya_17","3_unexpected","Haus","unexpected","j","n",0,613,1,1,4,2,3,4,1,"XXXX","Younger"
"655",655,"ya_17","30_unseen","Toaster",NA,"n","n",1,604,1,1,4,2,3,4,1,"XXXX","Younger"
"656",656,"ya_17","20_expected","Fahrrad","expected","j","j",1,612,1,1,4,2,3,4,1,"XXXX","Younger"
"657",657,"ya_17","32_unseen","Buchstaben",NA,"n","n",1,996,1,1,4,2,3,4,1,"XXXX","Younger"
"658",658,"ya_17","4_expected","Zähne","expected","j","n",0,764,1,1,4,2,3,4,1,"XXXX","Younger"
"659",659,"ya_17","5_unseen","Kopfgeld",NA,"n","n",1,1022,1,1,4,2,3,4,1,"XXXX","Younger"
"660",660,"ya_17","9_unexpected","Menge","unexpected","j","j",1,869,1,1,4,2,3,4,1,"XXXX","Younger"
"661",661,"ya_17","8_expected","Berge","expected","j","j",1,770,1,1,4,2,3,4,1,"XXXX","Younger"
"662",662,"ya_17","15_unseen","Künstlerin",NA,"n","n",1,811,1,1,4,2,3,4,1,"XXXX","Younger"
"663",663,"ya_17","6_expected","Tisch","expected","j","n",0,1418,1,1,4,2,3,4,1,"XXXX","Younger"
"664",664,"ya_17","34_expected","Bäckerei","expected","j","n",0,945,1,1,4,2,3,4,1,"XXXX","Younger"
"665",665,"ya_17","1_unseen","Käsekuchen",NA,"n","n",1,1196,1,1,4,2,3,4,1,"XXXX","Younger"
"666",666,"ya_17","38_expected","Licht","expected","j","j",1,948,1,1,4,2,3,4,1,"XXXX","Younger"
"667",667,"ya_17","23_unseen","Röhre",NA,"n","n",1,766,1,1,4,2,3,4,1,"XXXX","Younger"
"668",668,"ya_17","14_expected","Ferien","expected","j","j",1,1087,1,1,4,2,3,4,1,"XXXX","Younger"
"669",669,"ya_17","39_unseen","Makler",NA,"n","n",1,1107,1,1,4,2,3,4,1,"XXXX","Younger"
"670",670,"ya_17","2_unseen","Technik",NA,"n","n",1,943,1,1,4,2,3,4,1,"XXXX","Younger"
"671",671,"ya_17","18_expected","Orchester","expected","j","n",0,801,1,1,4,2,3,4,1,"XXXX","Younger"
"672",672,"ya_17","37_unseen","Smaragd",NA,"n","n",1,1401,1,1,4,2,3,4,1,"XXXX","Younger"
"673",673,"ya_17","45_unexpected","Antwort","unexpected","j","j",1,1265,1,1,4,2,3,4,1,"XXXX","Younger"
"674",674,"ya_17","10_unseen","Zwerge",NA,"n","n",1,878,1,1,4,2,3,4,1,"XXXX","Younger"
"675",675,"ya_17","17_unseen","Brüder",NA,"n","n",1,1747,1,1,4,2,3,4,1,"XXXX","Younger"
"676",676,"ya_17","7_unexpected","Wagen","unexpected","j","n",0,1486,1,1,4,2,3,4,1,"XXXX","Younger"
"677",677,"ya_17","37_unexpected","Waffe","unexpected","j","n",0,1962,1,1,4,2,3,4,1,"XXXX","Younger"
"678",678,"ya_17","40_unseen","Türke",NA,"n","n",1,899,1,1,4,2,3,4,1,"XXXX","Younger"
"679",679,"ya_17","29_unseen","Materie",NA,"n","n",1,1936,1,1,4,2,3,4,1,"XXXX","Younger"
"680",680,"ya_17","49_expected","Paket","expected","j","n",0,1883,1,1,4,2,3,4,1,"XXXX","Younger"
"681",681,"ya_17","17_unexpected","Herausforderung","unexpected","j","n",0,2422,1,1,4,2,3,4,1,"XXXX","Younger"
"682",682,"ya_17","25_unexpected","Wappen","unexpected","j","n",0,2206,1,1,4,2,3,4,1,"XXXX","Younger"
"683",683,"ya_17","43_unexpected","Gatter","unexpected","j","n",0,878,1,1,4,2,3,4,1,"XXXX","Younger"
"684",684,"ya_17","13_unseen","Frosch",NA,"n","n",1,1051,1,1,4,2,3,4,1,"XXXX","Younger"
"685",685,"ya_17","3_unseen","Lippen",NA,"n","n",1,1361,1,1,4,2,3,4,1,"XXXX","Younger"
"686",686,"ya_17","35_unexpected","Mund","unexpected","j","j",1,1578,1,1,4,2,3,4,1,"XXXX","Younger"
"687",687,"ya_17","33_unseen","Weste",NA,"n","n",1,1068,1,1,4,2,3,4,1,"XXXX","Younger"
"688",688,"ya_17","16_unseen","Antarktis",NA,"n","n",1,1617,1,1,4,2,3,4,1,"XXXX","Younger"
"689",689,"ya_17","25_unseen","Einzelkind",NA,"n","n",1,1240,1,1,4,2,3,4,1,"XXXX","Younger"
"690",690,"ya_17","28_unseen","Verschluss",NA,"n","n",1,3310,1,1,4,2,3,4,1,"XXXX","Younger"
"691",691,"ya_17","31_unexpected","Watte","unexpected","j","n",0,1419,1,1,4,2,3,4,1,"XXXX","Younger"
"692",692,"ya_17","19_unseen","Bombe",NA,"n","n",1,802,1,1,4,2,3,4,1,"XXXX","Younger"
"693",693,"ya_17","2_expected","Auto","expected","j","j",1,1930,1,1,4,2,3,4,1,"XXXX","Younger"
"694",694,"ya_17","12_unseen","Wunsch",NA,"n","j",0,1269,1,1,4,2,3,4,1,"XXXX","Younger"
"695",695,"ya_17","36_expected","Sauna","expected","j","n",0,802,1,1,4,2,3,4,1,"XXXX","Younger"
"696",696,"ya_17","16_expected","Schloss","expected","j","j",1,3330,1,1,4,2,3,4,1,"XXXX","Younger"
"697",697,"ya_17","10_expected","Band","expected","j","j",1,1821,1,1,4,2,3,4,1,"XXXX","Younger"
"698",698,"ya_17","8_unseen","Schutt",NA,"n","n",1,740,1,1,4,2,3,4,1,"XXXX","Younger"
"699",699,"ya_17","24_unseen","Speisesaal",NA,"n","n",1,1543,1,1,4,2,3,4,1,"XXXX","Younger"
"700",700,"ya_17","1_unexpected","Schlafzimmer","unexpected","j","n",0,1073,1,1,4,2,3,4,1,"XXXX","Younger"
"701",701,"ya_17","27_unseen","Bildschirm",NA,"n","j",0,1558,1,1,4,2,3,4,1,"XXXX","Younger"
"702",702,"ya_17","27_unexpected","Platte","unexpected","j","n",0,568,1,1,4,2,3,4,1,"XXXX","Younger"
"703",703,"ya_17","28_expected","Briefkasten","expected","j","n",0,593,1,1,4,2,3,4,1,"XXXX","Younger"
"704",704,"ya_17","20_unseen","Wüste",NA,"n","n",1,465,1,1,4,2,3,4,1,"XXXX","Younger"
"705",705,"ya_17","9_unseen","Sekunde",NA,"n","n",1,926,1,1,4,2,3,4,1,"XXXX","Younger"
"706",706,"ya_17","24_expected","Wald","expected","j","n",0,1121,1,1,4,2,3,4,1,"XXXX","Younger"
"707",707,"ya_17","35_unseen","Mozart",NA,"n","n",1,892,1,1,4,2,3,4,1,"XXXX","Younger"
"708",708,"ya_17","18_unseen","Pfadfinder",NA,"n","n",1,1001,1,1,4,2,3,4,1,"XXXX","Younger"
"709",709,"ya_17","15_unexpected","Untermieterin","unexpected","j","n",0,1144,1,1,4,2,3,4,1,"XXXX","Younger"
"710",710,"ya_17","30_expected","Polizei","expected","j","j",1,1827,1,1,4,2,3,4,1,"XXXX","Younger"
"711",711,"ya_17","34_unseen","Hypnose",NA,"n","n",1,978,1,1,4,2,3,4,1,"XXXX","Younger"
"712",712,"ya_17","22_expected","Kühlschrank","expected","j","j",1,1195,1,1,4,2,3,4,1,"XXXX","Younger"
"713",713,"ya_17","22_unseen","Pfanne",NA,"n","n",1,764,1,1,4,2,3,4,1,"XXXX","Younger"
"714",714,"ya_17","38_unseen","Felsen",NA,"n","j",0,1253,1,1,4,2,3,4,1,"XXXX","Younger"
"715",715,"ya_17","21_unexpected","Offizier","unexpected","j","n",0,739,1,1,4,2,3,4,1,"XXXX","Younger"
"716",716,"ya_17","31_unseen","Salami",NA,"n","n",1,581,1,1,4,2,3,4,1,"XXXX","Younger"
"717",717,"ya_17","26_unseen","Märchen",NA,"n","j",0,1373,1,1,4,2,3,4,1,"XXXX","Younger"
"718",718,"ya_17","47_expected","Tür","expected","j","j",1,1207,1,1,4,2,3,4,1,"XXXX","Younger"
"719",719,"ya_17","41_unexpected","Bock","unexpected","j","n",0,1462,1,1,4,2,3,4,1,"XXXX","Younger"
"720",720,"ya_17","21_unseen","Zigaretten",NA,"n","n",1,1596,1,1,4,2,3,4,1,"XXXX","Younger"
"721",721,"ya_18","11_expected","Müll","expected","j","j",1,1963,2,2,1,1,1,1,2,"","Younger"
"722",722,"ya_18","40_unexpected","Vogel","unexpected","j","n",0,813,2,2,1,1,1,1,2,"","Younger"
"723",723,"ya_18","23_expected","Zug","expected","j","j",1,1229,2,2,1,1,1,1,2,"","Younger"
"724",724,"ya_18","38_unseen","Felsen",NA,"n","n",1,764,2,2,1,1,1,1,2,"","Younger"
"725",725,"ya_18","9_unseen","Sekunde",NA,"n","n",1,853,2,2,1,1,1,1,2,"","Younger"
"726",726,"ya_18","12_unseen","Wunsch",NA,"n","n",1,723,2,2,1,1,1,1,2,"","Younger"
"727",727,"ya_18","33_unseen","Weste",NA,"n","n",1,638,2,2,1,1,1,1,2,"","Younger"
"728",728,"ya_18","30_unexpected","Geschäft","unexpected","j","j",1,1516,2,2,1,1,1,1,2,"","Younger"
"729",729,"ya_18","3_expected","Tür","expected","j","j",1,855,2,2,1,1,1,1,2,"","Younger"
"730",730,"ya_18","25_expected","Flagge","expected","j","n",0,725,2,2,1,1,1,1,2,"","Younger"
"731",731,"ya_18","43_expected","Stall","expected","j","n",0,1624,2,2,1,1,1,1,2,"","Younger"
"732",732,"ya_18","35_unseen","Mozart",NA,"n","n",1,1007,2,2,1,1,1,1,2,"","Younger"
"733",733,"ya_18","12_unexpected","Bart","unexpected","j","j",1,983,2,2,1,1,1,1,2,"","Younger"
"734",734,"ya_18","17_unseen","Brüder",NA,"n","n",1,1096,2,2,1,1,1,1,2,"","Younger"
"735",735,"ya_18","40_unseen","Türke",NA,"n","n",1,692,2,2,1,1,1,1,2,"","Younger"
"736",736,"ya_18","1_unseen","Käsekuchen",NA,"n","n",1,696,2,2,1,1,1,1,2,"","Younger"
"737",737,"ya_18","49_unexpected","Umschlag","unexpected","j","n",0,733,2,2,1,1,1,1,2,"","Younger"
"738",738,"ya_18","32_unseen","Buchstaben",NA,"n","n",1,1750,2,2,1,1,1,1,2,"","Younger"
"739",739,"ya_18","25_unseen","Einzelkind",NA,"n","n",1,736,2,2,1,1,1,1,2,"","Younger"
"740",740,"ya_18","31_unseen","Salami",NA,"n","n",1,658,2,2,1,1,1,1,2,"","Younger"
"741",741,"ya_18","22_unexpected","Badewanne","unexpected","j","j",1,1152,2,2,1,1,1,1,2,"","Younger"
"742",742,"ya_18","23_unseen","Röhre",NA,"n","n",1,634,2,2,1,1,1,1,2,"","Younger"
"743",743,"ya_18","24_unexpected","Gegend","unexpected","j","n",0,800,2,2,1,1,1,1,2,"","Younger"
"744",744,"ya_18","14_unexpected","Weihnachtsmann","unexpected","j","j",1,1048,2,2,1,1,1,1,2,"","Younger"
"745",745,"ya_18","4_unseen","Unterricht",NA,"n","j",0,1229,2,2,1,1,1,1,2,"","Younger"
"746",746,"ya_18","34_unexpected","Hotelzimmer","unexpected","j","n",0,1444,2,2,1,1,1,1,2,"","Younger"
"747",747,"ya_18","17_expected","Rätsel","expected","j","j",1,1035,2,2,1,1,1,1,2,"","Younger"
"748",748,"ya_18","10_unexpected","Rose","unexpected","j","j",1,945,2,2,1,1,1,1,2,"","Younger"
"749",749,"ya_18","14_unseen","Fahrzeuge",NA,"n","n",1,1588,2,2,1,1,1,1,2,"","Younger"
"750",750,"ya_18","44_unexpected","Vorhang","unexpected","j","n",0,1988,2,2,1,1,1,1,2,"","Younger"
"751",751,"ya_18","20_unseen","Wüste",NA,"n","n",1,1045,2,2,1,1,1,1,2,"","Younger"
"752",752,"ya_18","4_unexpected","Bauch","unexpected","j","j",1,700,2,2,1,1,1,1,2,"","Younger"
"753",753,"ya_18","13_unseen","Frosch",NA,"n","n",1,791,2,2,1,1,1,1,2,"","Younger"
"754",754,"ya_18","26_unexpected","Ratte","unexpected","j","j",1,720,2,2,1,1,1,1,2,"","Younger"
"755",755,"ya_18","38_unexpected","Computer","unexpected","j","j",1,1051,2,2,1,1,1,1,2,"","Younger"
"756",756,"ya_18","31_expected","Teig","expected","j","n",0,1152,2,2,1,1,1,1,2,"","Younger"
"757",757,"ya_18","47_unexpected","Fensterrahmen","unexpected","j","j",1,1418,2,2,1,1,1,1,2,"","Younger"
"758",758,"ya_18","10_unseen","Zwerge",NA,"n","n",1,801,2,2,1,1,1,1,2,"","Younger"
"759",759,"ya_18","8_unexpected","Osten","unexpected","j","j",1,976,2,2,1,1,1,1,2,"","Younger"
"760",760,"ya_18","9_expected","Ziel","expected","j","n",0,993,2,2,1,1,1,1,2,"","Younger"
"761",761,"ya_18","5_unseen","Kopfgeld",NA,"n","n",1,953,2,2,1,1,1,1,2,"","Younger"
"762",762,"ya_18","15_unseen","Künstlerin",NA,"n","n",1,819,2,2,1,1,1,1,2,"","Younger"
"763",763,"ya_18","39_expected","Apotheke","expected","j","j",1,642,2,2,1,1,1,1,2,"","Younger"
"764",764,"ya_18","35_expected","Nase","expected","j","n",0,1456,2,2,1,1,1,1,2,"","Younger"
"765",765,"ya_18","27_unseen","Bildschirm",NA,"n","n",1,1950,2,2,1,1,1,1,2,"","Younger"
"766",766,"ya_18","7_expected","Schiff","expected","j","n",0,1352,2,2,1,1,1,1,2,"","Younger"
"767",767,"ya_18","26_unseen","Märchen",NA,"n","n",1,2314,2,2,1,1,1,1,2,"","Younger"
"768",768,"ya_18","19_unseen","Bombe",NA,"n","n",1,1006,2,2,1,1,1,1,2,"","Younger"
"769",769,"ya_18","27_expected","Herd","expected","j","j",1,1902,2,2,1,1,1,1,2,"","Younger"
"770",770,"ya_18","16_unseen","Antarktis",NA,"n","n",1,970,2,2,1,1,1,1,2,"","Younger"
"771",771,"ya_18","29_expected","Geheimnis","expected","j","j",1,875,2,2,1,1,1,1,2,"","Younger"
"772",772,"ya_18","7_unseen","Zeichnung",NA,"n","n",1,1112,2,2,1,1,1,1,2,"","Younger"
"773",773,"ya_18","6_unseen","Gipfel",NA,"n","n",1,819,2,2,1,1,1,1,2,"","Younger"
"774",774,"ya_18","30_unseen","Toaster",NA,"n","n",1,882,2,2,1,1,1,1,2,"","Younger"
"775",775,"ya_18","8_unseen","Schutt",NA,"n","n",1,703,2,2,1,1,1,1,2,"","Younger"
"776",776,"ya_18","36_unexpected","Salon","unexpected","j","n",0,1114,2,2,1,1,1,1,2,"","Younger"
"777",777,"ya_18","11_unseen","Zuneigung",NA,"n","n",1,774,2,2,1,1,1,1,2,"","Younger"
"778",778,"ya_18","16_unexpected","Bus","unexpected","j","j",1,1439,2,2,1,1,1,1,2,"","Younger"
"779",779,"ya_18","19_expected","Fenster","expected","j","j",1,702,2,2,1,1,1,1,2,"","Younger"
"780",780,"ya_18","39_unseen","Makler",NA,"n","n",1,1152,2,2,1,1,1,1,2,"","Younger"
"781",781,"ya_18","41_expected","Kühe","expected","j","j",1,834,2,2,1,1,1,1,2,"","Younger"
"782",782,"ya_18","2_unexpected","Gruppe","unexpected","j","n",0,705,2,2,1,1,1,1,2,"","Younger"
"783",783,"ya_18","42_unexpected","Decke","unexpected","j","j",1,692,2,2,1,1,1,1,2,"","Younger"
"784",784,"ya_18","21_expected","Wunde","expected","j","n",0,760,2,2,1,1,1,1,2,"","Younger"
"785",785,"ya_18","37_unseen","Smaragd",NA,"n","n",1,754,2,2,1,1,1,1,2,"","Younger"
"786",786,"ya_18","45_expected","Ja-Wort","expected","j","n",0,1884,2,2,1,1,1,1,2,"","Younger"
"787",787,"ya_18","28_unseen","Verschluss",NA,"n","n",1,776,2,2,1,1,1,1,2,"","Younger"
"788",788,"ya_18","21_unseen","Zigaretten",NA,"n","n",1,937,2,2,1,1,1,1,2,"","Younger"
"789",789,"ya_18","3_unseen","Lippen",NA,"n","n",1,684,2,2,1,1,1,1,2,"","Younger"
"790",790,"ya_18","36_unseen","Schande",NA,"n","n",1,792,2,2,1,1,1,1,2,"","Younger"
"791",791,"ya_18","20_unexpected","Ausrüstung","unexpected","j","j",1,832,2,2,1,1,1,1,2,"","Younger"
"792",792,"ya_18","15_expected","Schlüsseldienst","expected","j","j",1,935,2,2,1,1,1,1,2,"","Younger"
"793",793,"ya_18","24_unseen","Speisesaal",NA,"n","n",1,921,2,2,1,1,1,1,2,"","Younger"
"794",794,"ya_18","22_unseen","Pfanne",NA,"n","j",0,1980,2,2,1,1,1,1,2,"","Younger"
"795",795,"ya_18","29_unseen","Materie",NA,"n","n",1,678,2,2,1,1,1,1,2,"","Younger"
"796",796,"ya_18","18_unseen","Pfadfinder",NA,"n","n",1,867,2,2,1,1,1,1,2,"","Younger"
"797",797,"ya_18","33_expected","Sonne","expected","j","j",1,1416,2,2,1,1,1,1,2,"","Younger"
"798",798,"ya_18","2_unseen","Technik",NA,"n","n",1,1079,2,2,1,1,1,1,2,"","Younger"
"799",799,"ya_18","48_expected","Wand","expected","j","j",1,980,2,2,1,1,1,1,2,"","Younger"
"800",800,"ya_18","34_unseen","Hypnose",NA,"n","n",1,813,2,2,1,1,1,1,2,"","Younger"
"801",801,"ya_19","11_expected","Müll","expected","j","j",1,1899,2,2,3,1,3,3,2,"","Younger"
"802",802,"ya_19","40_unexpected","Vogel","unexpected","j","j",1,3663,2,2,3,1,3,3,2,"","Younger"
"803",803,"ya_19","23_expected","Zug","expected","j","j",1,2374,2,2,3,1,3,3,2,"","Younger"
"804",804,"ya_19","38_unseen","Felsen",NA,"n","n",1,1207,2,2,3,1,3,3,2,"","Younger"
"805",805,"ya_19","9_unseen","Sekunde",NA,"n","n",1,1831,2,2,3,1,3,3,2,"","Younger"
"806",806,"ya_19","12_unseen","Wunsch",NA,"n","j",0,2638,2,2,3,1,3,3,2,"","Younger"
"807",807,"ya_19","33_unseen","Weste",NA,"n","n",1,1908,2,2,3,1,3,3,2,"","Younger"
"808",808,"ya_19","30_unexpected","Geschäft","unexpected","j","n",0,2080,2,2,3,1,3,3,2,"","Younger"
"809",809,"ya_19","3_expected","Tür","expected","j","j",1,2181,2,2,3,1,3,3,2,"","Younger"
"810",810,"ya_19","25_expected","Flagge","expected","j","j",1,822,2,2,3,1,3,3,2,"","Younger"
"811",811,"ya_19","43_expected","Stall","expected","j","j",1,1157,2,2,3,1,3,3,2,"","Younger"
"812",812,"ya_19","35_unseen","Mozart",NA,"n","n",1,1846,2,2,3,1,3,3,2,"","Younger"
"813",813,"ya_19","12_unexpected","Bart","unexpected","j","j",1,1213,2,2,3,1,3,3,2,"","Younger"
"814",814,"ya_19","17_unseen","Brüder",NA,"n","n",1,1781,2,2,3,1,3,3,2,"","Younger"
"815",815,"ya_19","40_unseen","Türke",NA,"n","n",1,1142,2,2,3,1,3,3,2,"","Younger"
"816",816,"ya_19","1_unseen","Käsekuchen",NA,"n","n",1,1504,2,2,3,1,3,3,2,"","Younger"
"817",817,"ya_19","49_unexpected","Umschlag","unexpected","j","j",1,1092,2,2,3,1,3,3,2,"","Younger"
"818",818,"ya_19","32_unseen","Buchstaben",NA,"n","j",0,4416,2,2,3,1,3,3,2,"","Younger"
"819",819,"ya_19","25_unseen","Einzelkind",NA,"n","n",1,1961,2,2,3,1,3,3,2,"","Younger"
"820",820,"ya_19","31_unseen","Salami",NA,"n","n",1,1155,2,2,3,1,3,3,2,"","Younger"
"821",821,"ya_19","22_unexpected","Badewanne","unexpected","j","j",1,1141,2,2,3,1,3,3,2,"","Younger"
"822",822,"ya_19","23_unseen","Röhre",NA,"n","n",1,1543,2,2,3,1,3,3,2,"","Younger"
"823",823,"ya_19","24_unexpected","Gegend","unexpected","j","j",1,1618,2,2,3,1,3,3,2,"","Younger"
"824",824,"ya_19","14_unexpected","Weihnachtsmann","unexpected","j","n",0,3313,2,2,3,1,3,3,2,"","Younger"
"825",825,"ya_19","4_unseen","Unterricht",NA,"n","j",0,2164,2,2,3,1,3,3,2,"","Younger"
"826",826,"ya_19","34_unexpected","Hotelzimmer","unexpected","j","n",0,1654,2,2,3,1,3,3,2,"","Younger"
"827",827,"ya_19","17_expected","Rätsel","expected","j","j",1,1364,2,2,3,1,3,3,2,"","Younger"
"828",828,"ya_19","10_unexpected","Rose","unexpected","j","j",1,1453,2,2,3,1,3,3,2,"","Younger"
"829",829,"ya_19","14_unseen","Fahrzeuge",NA,"n","n",1,2899,2,2,3,1,3,3,2,"","Younger"
"830",830,"ya_19","44_unexpected","Vorhang","unexpected","j","j",1,1015,2,2,3,1,3,3,2,"","Younger"
"831",831,"ya_19","20_unseen","Wüste",NA,"n","j",0,2174,2,2,3,1,3,3,2,"","Younger"
"832",832,"ya_19","4_unexpected","Bauch","unexpected","j","j",1,848,2,2,3,1,3,3,2,"","Younger"
"833",833,"ya_19","13_unseen","Frosch",NA,"n","n",1,2974,2,2,3,1,3,3,2,"","Younger"
"834",834,"ya_19","26_unexpected","Ratte","unexpected","j","j",1,1135,2,2,3,1,3,3,2,"","Younger"
"835",835,"ya_19","38_unexpected","Computer","unexpected","j","j",1,1634,2,2,3,1,3,3,2,"","Younger"
"836",836,"ya_19","31_expected","Teig","expected","j","j",1,888,2,2,3,1,3,3,2,"","Younger"
"837",837,"ya_19","47_unexpected","Fensterrahmen","unexpected","j","j",1,1181,2,2,3,1,3,3,2,"","Younger"
"838",838,"ya_19","10_unseen","Zwerge",NA,"n","j",0,3590,2,2,3,1,3,3,2,"","Younger"
"839",839,"ya_19","8_unexpected","Osten","unexpected","j","j",1,1135,2,2,3,1,3,3,2,"","Younger"
"840",840,"ya_19","9_expected","Ziel","expected","j","j",1,1482,2,2,3,1,3,3,2,"","Younger"
"841",841,"ya_19","5_unseen","Kopfgeld",NA,"n","n",1,1054,2,2,3,1,3,3,2,"","Younger"
"842",842,"ya_19","15_unseen","Künstlerin",NA,"n","n",1,5059,2,2,3,1,3,3,2,"","Younger"
"843",843,"ya_19","39_expected","Apotheke","expected","j","j",1,842,2,2,3,1,3,3,2,"","Younger"
"844",844,"ya_19","35_expected","Nase","expected","j","j",1,1401,2,2,3,1,3,3,2,"","Younger"
"845",845,"ya_19","27_unseen","Bildschirm",NA,"n","j",0,2329,2,2,3,1,3,3,2,"","Younger"
"846",846,"ya_19","7_expected","Schiff","expected","j","j",1,2828,2,2,3,1,3,3,2,"","Younger"
"847",847,"ya_19","26_unseen","Märchen",NA,"n","n",1,1132,2,2,3,1,3,3,2,"","Younger"
"848",848,"ya_19","19_unseen","Bombe",NA,"n","n",1,1022,2,2,3,1,3,3,2,"","Younger"
"849",849,"ya_19","27_expected","Herd","expected","j","n",0,2989,2,2,3,1,3,3,2,"","Younger"
"850",850,"ya_19","16_unseen","Antarktis",NA,"n","n",1,2102,2,2,3,1,3,3,2,"","Younger"
"851",851,"ya_19","29_expected","Geheimnis","expected","j","j",1,1043,2,2,3,1,3,3,2,"","Younger"
"852",852,"ya_19","7_unseen","Zeichnung",NA,"n","j",0,3017,2,2,3,1,3,3,2,"","Younger"
"853",853,"ya_19","6_unseen","Gipfel",NA,"n","j",0,2945,2,2,3,1,3,3,2,"","Younger"
"854",854,"ya_19","30_unseen","Toaster",NA,"n","n",1,2716,2,2,3,1,3,3,2,"","Younger"
"855",855,"ya_19","8_unseen","Schutt",NA,"n","n",1,952,2,2,3,1,3,3,2,"","Younger"
"856",856,"ya_19","36_unexpected","Salon","unexpected","j","j",1,1105,2,2,3,1,3,3,2,"","Younger"
"857",857,"ya_19","11_unseen","Zuneigung",NA,"n","n",1,1453,2,2,3,1,3,3,2,"","Younger"
"858",858,"ya_19","16_unexpected","Bus","unexpected","j","j",1,1899,2,2,3,1,3,3,2,"","Younger"
"859",859,"ya_19","19_expected","Fenster","expected","j","j",1,1254,2,2,3,1,3,3,2,"","Younger"
"860",860,"ya_19","39_unseen","Makler",NA,"n","n",1,1844,2,2,3,1,3,3,2,"","Younger"
"861",861,"ya_19","41_expected","Kühe","expected","j","n",0,3210,2,2,3,1,3,3,2,"","Younger"
"862",862,"ya_19","2_unexpected","Gruppe","unexpected","j","j",1,1395,2,2,3,1,3,3,2,"","Younger"
"863",863,"ya_19","42_unexpected","Decke","unexpected","j","j",1,1428,2,2,3,1,3,3,2,"","Younger"
"864",864,"ya_19","21_expected","Wunde","expected","j","j",1,1171,2,2,3,1,3,3,2,"","Younger"
"865",865,"ya_19","37_unseen","Smaragd",NA,"n","n",1,1180,2,2,3,1,3,3,2,"","Younger"
"866",866,"ya_19","45_expected","Ja-Wort","expected","j","n",0,1717,2,2,3,1,3,3,2,"","Younger"
"867",867,"ya_19","28_unseen","Verschluss",NA,"n","n",1,2080,2,2,3,1,3,3,2,"","Younger"
"868",868,"ya_19","21_unseen","Zigaretten",NA,"n","n",1,2790,2,2,3,1,3,3,2,"","Younger"
"869",869,"ya_19","3_unseen","Lippen",NA,"n","n",1,3119,2,2,3,1,3,3,2,"","Younger"
"870",870,"ya_19","36_unseen","Schande",NA,"n","n",1,2155,2,2,3,1,3,3,2,"","Younger"
"871",871,"ya_19","20_unexpected","Ausrüstung","unexpected","j","j",1,1245,2,2,3,1,3,3,2,"","Younger"
"872",872,"ya_19","15_expected","Schlüsseldienst","expected","j","j",1,939,2,2,3,1,3,3,2,"","Younger"
"873",873,"ya_19","24_unseen","Speisesaal",NA,"n","n",1,1430,2,2,3,1,3,3,2,"","Younger"
"874",874,"ya_19","22_unseen","Pfanne",NA,"n","j",0,1069,2,2,3,1,3,3,2,"","Younger"
"875",875,"ya_19","29_unseen","Materie",NA,"n","n",1,2402,2,2,3,1,3,3,2,"","Younger"
"876",876,"ya_19","18_unseen","Pfadfinder",NA,"n","n",1,2937,2,2,3,1,3,3,2,"","Younger"
"877",877,"ya_19","33_expected","Sonne","expected","j","j",1,2524,2,2,3,1,3,3,2,"","Younger"
"878",878,"ya_19","2_unseen","Technik",NA,"n","n",1,1688,2,2,3,1,3,3,2,"","Younger"
"879",879,"ya_19","48_expected","Wand","expected","j","j",1,2957,2,2,3,1,3,3,2,"","Younger"
"880",880,"ya_19","34_unseen","Hypnose",NA,"n","n",1,1039,2,2,3,1,3,3,2,"","Younger"
"881",881,"ya_2","11_expected","Müll","expected","j","n",0,28103,1,2,2,1,2,1,2,"XXXX","Younger"
"882",882,"ya_2","40_unexpected","Vogel","unexpected","j","n",0,1461,1,2,2,1,2,1,2,"XXXX","Younger"
"883",883,"ya_2","23_expected","Zug","expected","j","n",0,763,1,2,2,1,2,1,2,"XXXX","Younger"
"884",884,"ya_2","38_unseen","Felsen",NA,"n","n",1,676,1,2,2,1,2,1,2,"XXXX","Younger"
"885",885,"ya_2","9_unseen","Sekunde",NA,"n","n",1,641,1,2,2,1,2,1,2,"XXXX","Younger"
"886",886,"ya_2","12_unseen","Wunsch",NA,"n","n",1,616,1,2,2,1,2,1,2,"XXXX","Younger"
"887",887,"ya_2","33_unseen","Weste",NA,"n","n",1,583,1,2,2,1,2,1,2,"XXXX","Younger"
"888",888,"ya_2","30_unexpected","Geschäft","unexpected","j","n",0,583,1,2,2,1,2,1,2,"XXXX","Younger"
"889",889,"ya_2","3_expected","Tür","expected","j","n",0,543,1,2,2,1,2,1,2,"XXXX","Younger"
"890",890,"ya_2","25_expected","Flagge","expected","j","n",0,561,1,2,2,1,2,1,2,"XXXX","Younger"
"891",891,"ya_2","43_expected","Stall","expected","j","n",0,627,1,2,2,1,2,1,2,"XXXX","Younger"
"892",892,"ya_2","35_unseen","Mozart",NA,"n","n",1,554,1,2,2,1,2,1,2,"XXXX","Younger"
"893",893,"ya_2","12_unexpected","Bart","unexpected","j","n",0,580,1,2,2,1,2,1,2,"XXXX","Younger"
"894",894,"ya_2","17_unseen","Brüder",NA,"n","n",1,597,1,2,2,1,2,1,2,"XXXX","Younger"
"895",895,"ya_2","40_unseen","Türke",NA,"n","n",1,581,1,2,2,1,2,1,2,"XXXX","Younger"
"896",896,"ya_2","1_unseen","Käsekuchen",NA,"n","n",1,614,1,2,2,1,2,1,2,"XXXX","Younger"
"897",897,"ya_2","49_unexpected","Umschlag","unexpected","j","n",0,797,1,2,2,1,2,1,2,"XXXX","Younger"
"898",898,"ya_2","32_unseen","Buchstaben",NA,"n","n",1,638,1,2,2,1,2,1,2,"XXXX","Younger"
"899",899,"ya_2","25_unseen","Einzelkind",NA,"n","n",1,812,1,2,2,1,2,1,2,"XXXX","Younger"
"900",900,"ya_2","31_unseen","Salami",NA,"n","n",1,651,1,2,2,1,2,1,2,"XXXX","Younger"
"901",901,"ya_2","22_unexpected","Badewanne","unexpected","j","n",0,656,1,2,2,1,2,1,2,"XXXX","Younger"
"902",902,"ya_2","23_unseen","Röhre",NA,"n","n",1,646,1,2,2,1,2,1,2,"XXXX","Younger"
"903",903,"ya_2","24_unexpected","Gegend","unexpected","j","n",0,596,1,2,2,1,2,1,2,"XXXX","Younger"
"904",904,"ya_2","14_unexpected","Weihnachtsmann","unexpected","j","n",0,820,1,2,2,1,2,1,2,"XXXX","Younger"
"905",905,"ya_2","4_unseen","Unterricht",NA,"n","n",1,1027,1,2,2,1,2,1,2,"XXXX","Younger"
"906",906,"ya_2","34_unexpected","Hotelzimmer","unexpected","j","n",0,899,1,2,2,1,2,1,2,"XXXX","Younger"
"907",907,"ya_2","17_expected","Rätsel","expected","j","n",0,862,1,2,2,1,2,1,2,"XXXX","Younger"
"908",908,"ya_2","10_unexpected","Rose","unexpected","j","n",0,756,1,2,2,1,2,1,2,"XXXX","Younger"
"909",909,"ya_2","14_unseen","Fahrzeuge",NA,"n","n",1,1166,1,2,2,1,2,1,2,"XXXX","Younger"
"910",910,"ya_2","44_unexpected","Vorhang","unexpected","j","n",0,1039,1,2,2,1,2,1,2,"XXXX","Younger"
"911",911,"ya_2","20_unseen","Wüste",NA,"n","n",1,1725,1,2,2,1,2,1,2,"XXXX","Younger"
"912",912,"ya_2","4_unexpected","Bauch","unexpected","j","n",0,1153,1,2,2,1,2,1,2,"XXXX","Younger"
"913",913,"ya_2","13_unseen","Frosch",NA,"n","n",1,1018,1,2,2,1,2,1,2,"XXXX","Younger"
"914",914,"ya_2","26_unexpected","Ratte","unexpected","j","n",0,857,1,2,2,1,2,1,2,"XXXX","Younger"
"915",915,"ya_2","38_unexpected","Computer","unexpected","j","n",0,1031,1,2,2,1,2,1,2,"XXXX","Younger"
"916",916,"ya_2","31_expected","Teig","expected","j","n",0,894,1,2,2,1,2,1,2,"XXXX","Younger"
"917",917,"ya_2","47_unexpected","Fensterrahmen","unexpected","j","n",0,1465,1,2,2,1,2,1,2,"XXXX","Younger"
"918",918,"ya_2","10_unseen","Zwerge",NA,"n","n",1,998,1,2,2,1,2,1,2,"XXXX","Younger"
"919",919,"ya_2","8_unexpected","Osten","unexpected","j","n",0,1022,1,2,2,1,2,1,2,"XXXX","Younger"
"920",920,"ya_2","9_expected","Ziel","expected","j","n",0,1613,1,2,2,1,2,1,2,"XXXX","Younger"
"921",921,"ya_2","5_unseen","Kopfgeld",NA,"n","n",1,1525,1,2,2,1,2,1,2,"XXXX","Younger"
"922",922,"ya_2","15_unseen","Künstlerin",NA,"n","n",1,1648,1,2,2,1,2,1,2,"XXXX","Younger"
"923",923,"ya_2","39_expected","Apotheke","expected","j","n",0,1078,1,2,2,1,2,1,2,"XXXX","Younger"
"924",924,"ya_2","35_expected","Nase","expected","j","n",0,1019,1,2,2,1,2,1,2,"XXXX","Younger"
"925",925,"ya_2","27_unseen","Bildschirm",NA,"n","n",1,1627,1,2,2,1,2,1,2,"XXXX","Younger"
"926",926,"ya_2","7_expected","Schiff","expected","j","n",0,2010,1,2,2,1,2,1,2,"XXXX","Younger"
"927",927,"ya_2","26_unseen","Märchen",NA,"n","n",1,2018,1,2,2,1,2,1,2,"XXXX","Younger"
"928",928,"ya_2","19_unseen","Bombe",NA,"n","n",1,1889,1,2,2,1,2,1,2,"XXXX","Younger"
"929",929,"ya_2","27_expected","Herd","expected","j","n",0,2302,1,2,2,1,2,1,2,"XXXX","Younger"
"930",930,"ya_2","16_unseen","Antarktis",NA,"n","n",1,2178,1,2,2,1,2,1,2,"XXXX","Younger"
"931",931,"ya_2","29_expected","Geheimnis","expected","j","n",0,2619,1,2,2,1,2,1,2,"XXXX","Younger"
"932",932,"ya_2","7_unseen","Zeichnung",NA,"n","n",1,1331,1,2,2,1,2,1,2,"XXXX","Younger"
"933",933,"ya_2","6_unseen","Gipfel",NA,"n","n",1,3565,1,2,2,1,2,1,2,"XXXX","Younger"
"934",934,"ya_2","30_unseen","Toaster",NA,"n","n",1,1975,1,2,2,1,2,1,2,"XXXX","Younger"
"935",935,"ya_2","8_unseen","Schutt",NA,"n","n",1,1753,1,2,2,1,2,1,2,"XXXX","Younger"
"936",936,"ya_2","36_unexpected","Salon","unexpected","j","n",0,1619,1,2,2,1,2,1,2,"XXXX","Younger"
"937",937,"ya_2","11_unseen","Zuneigung",NA,"n","n",1,1378,1,2,2,1,2,1,2,"XXXX","Younger"
"938",938,"ya_2","16_unexpected","Bus","unexpected","j","n",0,3211,1,2,2,1,2,1,2,"XXXX","Younger"
"939",939,"ya_2","19_expected","Fenster","expected","j","j",1,1284,1,2,2,1,2,1,2,"XXXX","Younger"
"940",940,"ya_2","39_unseen","Makler",NA,"n","n",1,1016,1,2,2,1,2,1,2,"XXXX","Younger"
"941",941,"ya_2","41_expected","Kühe","expected","j","n",0,1871,1,2,2,1,2,1,2,"XXXX","Younger"
"942",942,"ya_2","2_unexpected","Gruppe","unexpected","j","n",0,2141,1,2,2,1,2,1,2,"XXXX","Younger"
"943",943,"ya_2","42_unexpected","Decke","unexpected","j","j",1,1775,1,2,2,1,2,1,2,"XXXX","Younger"
"944",944,"ya_2","21_expected","Wunde","expected","j","n",0,1089,1,2,2,1,2,1,2,"XXXX","Younger"
"945",945,"ya_2","37_unseen","Smaragd",NA,"n","n",1,973,1,2,2,1,2,1,2,"XXXX","Younger"
"946",946,"ya_2","45_expected","Ja-Wort","expected","j","n",0,1373,1,2,2,1,2,1,2,"XXXX","Younger"
"947",947,"ya_2","28_unseen","Verschluss",NA,"n","j",0,1935,1,2,2,1,2,1,2,"XXXX","Younger"
"948",948,"ya_2","21_unseen","Zigaretten",NA,"n","n",1,1185,1,2,2,1,2,1,2,"XXXX","Younger"
"949",949,"ya_2","3_unseen","Lippen",NA,"n","n",1,1122,1,2,2,1,2,1,2,"XXXX","Younger"
"950",950,"ya_2","36_unseen","Schande",NA,"n","n",1,1461,1,2,2,1,2,1,2,"XXXX","Younger"
"951",951,"ya_2","20_unexpected","Ausrüstung","unexpected","j","n",0,1307,1,2,2,1,2,1,2,"XXXX","Younger"
"952",952,"ya_2","15_expected","Schlüsseldienst","expected","j","n",0,1543,1,2,2,1,2,1,2,"XXXX","Younger"
"953",953,"ya_2","24_unseen","Speisesaal",NA,"n","n",1,1713,1,2,2,1,2,1,2,"XXXX","Younger"
"954",954,"ya_2","22_unseen","Pfanne",NA,"n","j",0,2661,1,2,2,1,2,1,2,"XXXX","Younger"
"955",955,"ya_2","29_unseen","Materie",NA,"n","n",1,1460,1,2,2,1,2,1,2,"XXXX","Younger"
"956",956,"ya_2","18_unseen","Pfadfinder",NA,"n","n",1,1162,1,2,2,1,2,1,2,"XXXX","Younger"
"957",957,"ya_2","33_expected","Sonne","expected","j","j",1,1843,1,2,2,1,2,1,2,"XXXX","Younger"
"958",958,"ya_2","2_unseen","Technik",NA,"n","n",1,1058,1,2,2,1,2,1,2,"XXXX","Younger"
"959",959,"ya_2","48_expected","Wand","expected","j","j",1,1488,1,2,2,1,2,1,2,"XXXX","Younger"
"960",960,"ya_2","34_unseen","Hypnose",NA,"n","n",1,940,1,2,2,1,2,1,2,"XXXX","Younger"
"961",961,"ya_20","13_unexpected","Couch","unexpected","j","j",1,6457,1,1,2,2,2,2,1,"","Younger"
"962",962,"ya_20","14_unseen","Fahrzeuge",NA,"n","n",1,1944,1,1,2,2,2,2,1,"","Younger"
"963",963,"ya_20","5_unexpected","Grundstück","unexpected","j","j",1,923,1,1,2,2,2,2,1,"","Younger"
"964",964,"ya_20","7_unseen","Zeichnung",NA,"n","n",1,2374,1,1,2,2,2,2,1,"","Younger"
"965",965,"ya_20","48_unexpected","Dachboden","unexpected","j","j",1,1568,1,1,2,2,2,2,1,"","Younger"
"966",966,"ya_20","11_unseen","Zuneigung",NA,"n","n",1,2073,1,1,2,2,2,2,1,"","Younger"
"967",967,"ya_20","19_unexpected","Klappe","unexpected","j","n",0,3231,1,1,2,2,2,2,1,"","Younger"
"968",968,"ya_20","4_unseen","Unterricht",NA,"n","j",0,1110,1,1,2,2,2,2,1,"","Younger"
"969",969,"ya_20","42_expected","Boden","expected","j","j",1,1130,1,1,2,2,2,2,1,"","Younger"
"970",970,"ya_20","36_unseen","Schande",NA,"n","n",1,1413,1,1,2,2,2,2,1,"","Younger"
"971",971,"ya_20","40_expected","Affen","expected","j","n",0,4228,1,1,2,2,2,2,1,"","Younger"
"972",972,"ya_20","6_unseen","Gipfel",NA,"n","n",1,2492,1,1,2,2,2,2,1,"","Younger"
"973",973,"ya_20","39_unexpected","Hospital","unexpected","j","j",1,2129,1,1,2,2,2,2,1,"","Younger"
"974",974,"ya_20","3_unexpected","Haus","unexpected","j","j",1,836,1,1,2,2,2,2,1,"","Younger"
"975",975,"ya_20","30_unseen","Toaster",NA,"n","n",1,1170,1,1,2,2,2,2,1,"","Younger"
"976",976,"ya_20","20_expected","Fahrrad","expected","j","j",1,1076,1,1,2,2,2,2,1,"","Younger"
"977",977,"ya_20","32_unseen","Buchstaben",NA,"n","n",1,2897,1,1,2,2,2,2,1,"","Younger"
"978",978,"ya_20","4_expected","Zähne","expected","j","n",0,2701,1,1,2,2,2,2,1,"","Younger"
"979",979,"ya_20","5_unseen","Kopfgeld",NA,"n","n",1,1289,1,1,2,2,2,2,1,"","Younger"
"980",980,"ya_20","9_unexpected","Menge","unexpected","j","j",1,1030,1,1,2,2,2,2,1,"","Younger"
"981",981,"ya_20","8_expected","Berge","expected","j","j",1,1709,1,1,2,2,2,2,1,"","Younger"
"982",982,"ya_20","15_unseen","Künstlerin",NA,"n","n",1,3009,1,1,2,2,2,2,1,"","Younger"
"983",983,"ya_20","6_expected","Tisch","expected","j","j",1,1041,1,1,2,2,2,2,1,"","Younger"
"984",984,"ya_20","34_expected","Bäckerei","expected","j","j",1,856,1,1,2,2,2,2,1,"","Younger"
"985",985,"ya_20","1_unseen","Käsekuchen",NA,"n","n",1,1030,1,1,2,2,2,2,1,"","Younger"
"986",986,"ya_20","38_expected","Licht","expected","j","j",1,1133,1,1,2,2,2,2,1,"","Younger"
"987",987,"ya_20","23_unseen","Röhre",NA,"n","n",1,895,1,1,2,2,2,2,1,"","Younger"
"988",988,"ya_20","14_expected","Ferien","expected","j","j",1,1436,1,1,2,2,2,2,1,"","Younger"
"989",989,"ya_20","39_unseen","Makler",NA,"n","n",1,1057,1,1,2,2,2,2,1,"","Younger"
"990",990,"ya_20","2_unseen","Technik",NA,"n","n",1,2087,1,1,2,2,2,2,1,"","Younger"
"991",991,"ya_20","18_expected","Orchester","expected","j","n",0,5308,1,1,2,2,2,2,1,"","Younger"
"992",992,"ya_20","37_unseen","Smaragd",NA,"n","n",1,2609,1,1,2,2,2,2,1,"","Younger"
"993",993,"ya_20","45_unexpected","Antwort","unexpected","j","j",1,2481,1,1,2,2,2,2,1,"","Younger"
"994",994,"ya_20","10_unseen","Zwerge",NA,"n","n",1,2142,1,1,2,2,2,2,1,"","Younger"
"995",995,"ya_20","17_unseen","Brüder",NA,"n","n",1,3025,1,1,2,2,2,2,1,"","Younger"
"996",996,"ya_20","7_unexpected","Wagen","unexpected","j","j",1,1073,1,1,2,2,2,2,1,"","Younger"
"997",997,"ya_20","37_unexpected","Waffe","unexpected","j","n",0,3198,1,1,2,2,2,2,1,"","Younger"
"998",998,"ya_20","40_unseen","Türke",NA,"n","n",1,934,1,1,2,2,2,2,1,"","Younger"
"999",999,"ya_20","29_unseen","Materie",NA,"n","n",1,1169,1,1,2,2,2,2,1,"","Younger"
"1000",1000,"ya_20","49_expected","Paket","expected","j","j",1,1162,1,1,2,2,2,2,1,"","Younger"
"1001",1001,"ya_20","17_unexpected","Herausforderung","unexpected","j","n",0,3244,1,1,2,2,2,2,1,"","Younger"
"1002",1002,"ya_20","25_unexpected","Wappen","unexpected","j","j",1,851,1,1,2,2,2,2,1,"","Younger"
"1003",1003,"ya_20","43_unexpected","Gatter","unexpected","j","n",0,2097,1,1,2,2,2,2,1,"","Younger"
"1004",1004,"ya_20","13_unseen","Frosch",NA,"n","n",1,1796,1,1,2,2,2,2,1,"","Younger"
"1005",1005,"ya_20","3_unseen","Lippen",NA,"n","n",1,2397,1,1,2,2,2,2,1,"","Younger"
"1006",1006,"ya_20","35_unexpected","Mund","unexpected","j","j",1,1869,1,1,2,2,2,2,1,"","Younger"
"1007",1007,"ya_20","33_unseen","Weste",NA,"n","j",0,1539,1,1,2,2,2,2,1,"","Younger"
"1008",1008,"ya_20","16_unseen","Antarktis",NA,"n","n",1,1013,1,1,2,2,2,2,1,"","Younger"
"1009",1009,"ya_20","25_unseen","Einzelkind",NA,"n","n",1,1229,1,1,2,2,2,2,1,"","Younger"
"1010",1010,"ya_20","28_unseen","Verschluss",NA,"n","j",0,1916,1,1,2,2,2,2,1,"","Younger"
"1011",1011,"ya_20","31_unexpected","Watte","unexpected","j","j",1,1080,1,1,2,2,2,2,1,"","Younger"
"1012",1012,"ya_20","19_unseen","Bombe",NA,"n","n",1,981,1,1,2,2,2,2,1,"","Younger"
"1013",1013,"ya_20","2_expected","Auto","expected","j","j",1,1078,1,1,2,2,2,2,1,"","Younger"
"1014",1014,"ya_20","12_unseen","Wunsch",NA,"n","n",1,2403,1,1,2,2,2,2,1,"","Younger"
"1015",1015,"ya_20","36_expected","Sauna","expected","j","j",1,1411,1,1,2,2,2,2,1,"","Younger"
"1016",1016,"ya_20","16_expected","Schloss","expected","j","j",1,1443,1,1,2,2,2,2,1,"","Younger"
"1017",1017,"ya_20","10_expected","Band","expected","j","n",0,1593,1,1,2,2,2,2,1,"","Younger"
"1018",1018,"ya_20","8_unseen","Schutt",NA,"n","n",1,2706,1,1,2,2,2,2,1,"","Younger"
"1019",1019,"ya_20","24_unseen","Speisesaal",NA,"n","n",1,1126,1,1,2,2,2,2,1,"","Younger"
"1020",1020,"ya_20","1_unexpected","Schlafzimmer","unexpected","j","j",1,1882,1,1,2,2,2,2,1,"","Younger"
"1021",1021,"ya_20","27_unseen","Bildschirm",NA,"n","n",1,3070,1,1,2,2,2,2,1,"","Younger"
"1022",1022,"ya_20","27_unexpected","Platte","unexpected","j","n",0,3683,1,1,2,2,2,2,1,"","Younger"
"1023",1023,"ya_20","28_expected","Briefkasten","expected","j","j",1,1544,1,1,2,2,2,2,1,"","Younger"
"1024",1024,"ya_20","20_unseen","Wüste",NA,"n","n",1,1275,1,1,2,2,2,2,1,"","Younger"
"1025",1025,"ya_20","9_unseen","Sekunde",NA,"n","n",1,2784,1,1,2,2,2,2,1,"","Younger"
"1026",1026,"ya_20","24_expected","Wald","expected","j","j",1,1361,1,1,2,2,2,2,1,"","Younger"
"1027",1027,"ya_20","35_unseen","Mozart",NA,"n","n",1,1411,1,1,2,2,2,2,1,"","Younger"
"1028",1028,"ya_20","18_unseen","Pfadfinder",NA,"n","n",1,1251,1,1,2,2,2,2,1,"","Younger"
"1029",1029,"ya_20","15_unexpected","Untermieterin","unexpected","j","j",1,1345,1,1,2,2,2,2,1,"","Younger"
"1030",1030,"ya_20","30_expected","Polizei","expected","j","j",1,1307,1,1,2,2,2,2,1,"","Younger"
"1031",1031,"ya_20","34_unseen","Hypnose",NA,"n","n",1,815,1,1,2,2,2,2,1,"","Younger"
"1032",1032,"ya_20","22_expected","Kühlschrank","expected","j","j",1,1790,1,1,2,2,2,2,1,"","Younger"
"1033",1033,"ya_20","22_unseen","Pfanne",NA,"n","n",1,1127,1,1,2,2,2,2,1,"","Younger"
"1034",1034,"ya_20","38_unseen","Felsen",NA,"n","n",1,4042,1,1,2,2,2,2,1,"","Younger"
"1035",1035,"ya_20","21_unexpected","Offizier","unexpected","j","j",1,1465,1,1,2,2,2,2,1,"","Younger"
"1036",1036,"ya_20","31_unseen","Salami",NA,"n","n",1,895,1,1,2,2,2,2,1,"","Younger"
"1037",1037,"ya_20","26_unseen","Märchen",NA,"n","j",0,4507,1,1,2,2,2,2,1,"","Younger"
"1038",1038,"ya_20","47_expected","Tür","expected","j","j",1,1224,1,1,2,2,2,2,1,"","Younger"
"1039",1039,"ya_20","41_unexpected","Bock","unexpected","j","n",0,1895,1,1,2,2,2,2,1,"","Younger"
"1040",1040,"ya_20","21_unseen","Zigaretten",NA,"n","n",1,1115,1,1,2,2,2,2,1,"","Younger"
"1041",1041,"ya_21","13_unexpected","Couch","unexpected","j","n",0,2240,1,1,4,2,3,4,1,"XXXX","Younger"
"1042",1042,"ya_21","14_unseen","Fahrzeuge",NA,"n","n",1,2519,1,1,4,2,3,4,1,"XXXX","Younger"
"1043",1043,"ya_21","5_unexpected","Grundstück","unexpected","j","n",0,835,1,1,4,2,3,4,1,"XXXX","Younger"
"1044",1044,"ya_21","7_unseen","Zeichnung",NA,"n","n",1,1001,1,1,4,2,3,4,1,"XXXX","Younger"
"1045",1045,"ya_21","48_unexpected","Dachboden","unexpected","j","n",0,2105,1,1,4,2,3,4,1,"XXXX","Younger"
"1046",1046,"ya_21","11_unseen","Zuneigung",NA,"n","n",1,1493,1,1,4,2,3,4,1,"XXXX","Younger"
"1047",1047,"ya_21","19_unexpected","Klappe","unexpected","j","n",0,873,1,1,4,2,3,4,1,"XXXX","Younger"
"1048",1048,"ya_21","4_unseen","Unterricht",NA,"n","n",1,2342,1,1,4,2,3,4,1,"XXXX","Younger"
"1049",1049,"ya_21","42_expected","Boden","expected","j","n",0,4953,1,1,4,2,3,4,1,"XXXX","Younger"
"1050",1050,"ya_21","36_unseen","Schande",NA,"n","n",1,1372,1,1,4,2,3,4,1,"XXXX","Younger"
"1051",1051,"ya_21","40_expected","Affen","expected","j","n",0,3390,1,1,4,2,3,4,1,"XXXX","Younger"
"1052",1052,"ya_21","6_unseen","Gipfel",NA,"n","n",1,2719,1,1,4,2,3,4,1,"XXXX","Younger"
"1053",1053,"ya_21","39_unexpected","Hospital","unexpected","j","n",0,1226,1,1,4,2,3,4,1,"XXXX","Younger"
"1054",1054,"ya_21","3_unexpected","Haus","unexpected","j","j",1,5866,1,1,4,2,3,4,1,"XXXX","Younger"
"1055",1055,"ya_21","30_unseen","Toaster",NA,"n","n",1,1416,1,1,4,2,3,4,1,"XXXX","Younger"
"1056",1056,"ya_21","20_expected","Fahrrad","expected","j","j",1,7679,1,1,4,2,3,4,1,"XXXX","Younger"
"1057",1057,"ya_21","32_unseen","Buchstaben",NA,"n","n",1,1926,1,1,4,2,3,4,1,"XXXX","Younger"
"1058",1058,"ya_21","4_expected","Zähne","expected","j","n",0,866,1,1,4,2,3,4,1,"XXXX","Younger"
"1059",1059,"ya_21","5_unseen","Kopfgeld",NA,"n","n",1,743,1,1,4,2,3,4,1,"XXXX","Younger"
"1060",1060,"ya_21","9_unexpected","Menge","unexpected","j","n",0,1409,1,1,4,2,3,4,1,"XXXX","Younger"
"1061",1061,"ya_21","8_expected","Berge","expected","j","j",1,1913,1,1,4,2,3,4,1,"XXXX","Younger"
"1062",1062,"ya_21","15_unseen","Künstlerin",NA,"n","n",1,1837,1,1,4,2,3,4,1,"XXXX","Younger"
"1063",1063,"ya_21","6_expected","Tisch","expected","j","n",0,1267,1,1,4,2,3,4,1,"XXXX","Younger"
"1064",1064,"ya_21","34_expected","Bäckerei","expected","j","j",1,1793,1,1,4,2,3,4,1,"XXXX","Younger"
"1065",1065,"ya_21","1_unseen","Käsekuchen",NA,"n","n",1,1585,1,1,4,2,3,4,1,"XXXX","Younger"
"1066",1066,"ya_21","38_expected","Licht","expected","j","n",0,4418,1,1,4,2,3,4,1,"XXXX","Younger"
"1067",1067,"ya_21","23_unseen","Röhre",NA,"n","n",1,954,1,1,4,2,3,4,1,"XXXX","Younger"
"1068",1068,"ya_21","14_expected","Ferien","expected","j","j",1,1452,1,1,4,2,3,4,1,"XXXX","Younger"
"1069",1069,"ya_21","39_unseen","Makler",NA,"n","n",1,2306,1,1,4,2,3,4,1,"XXXX","Younger"
"1070",1070,"ya_21","2_unseen","Technik",NA,"n","n",1,2142,1,1,4,2,3,4,1,"XXXX","Younger"
"1071",1071,"ya_21","18_expected","Orchester","expected","j","j",1,1393,1,1,4,2,3,4,1,"XXXX","Younger"
"1072",1072,"ya_21","37_unseen","Smaragd",NA,"n","n",1,1281,1,1,4,2,3,4,1,"XXXX","Younger"
"1073",1073,"ya_21","45_unexpected","Antwort","unexpected","j","n",0,2502,1,1,4,2,3,4,1,"XXXX","Younger"
"1074",1074,"ya_21","10_unseen","Zwerge",NA,"n","n",1,1313,1,1,4,2,3,4,1,"XXXX","Younger"
"1075",1075,"ya_21","17_unseen","Brüder",NA,"n","n",1,949,1,1,4,2,3,4,1,"XXXX","Younger"
"1076",1076,"ya_21","7_unexpected","Wagen","unexpected","j","n",0,1111,1,1,4,2,3,4,1,"XXXX","Younger"
"1077",1077,"ya_21","37_unexpected","Waffe","unexpected","j","n",0,843,1,1,4,2,3,4,1,"XXXX","Younger"
"1078",1078,"ya_21","40_unseen","Türke",NA,"n","n",1,657,1,1,4,2,3,4,1,"XXXX","Younger"
"1079",1079,"ya_21","29_unseen","Materie",NA,"n","n",1,1087,1,1,4,2,3,4,1,"XXXX","Younger"
"1080",1080,"ya_21","49_expected","Paket","expected","j","j",1,6523,1,1,4,2,3,4,1,"XXXX","Younger"
