"","Subject","item","noun","condition","word.CRESP","word.RESP","word.ACC","word.RT","spr_listnr_assigned","recog_listnr_assigned","wrong_combo"
"1","oa_1","13_unexpected","Couch","unexpected","j","j",1,10795,4,2,""
"2","oa_1","14_unseen","Fahrzeuge",NA,"n","n",1,5118,4,2,""
"3","oa_1","5_unexpected","Grundstück","unexpected","j","n",0,5859,4,2,""
"4","oa_1","7_unseen","Zeichnung",NA,"n","n",1,2298,4,2,""
"5","oa_1","48_unexpected","Dachboden","unexpected","j","j",1,2470,4,2,""
"6","oa_1","11_unseen","Zuneigung",NA,"n","j",0,3027,4,2,""
"7","oa_1","19_unexpected","Klappe","unexpected","j","n",0,3803,4,2,""
"8","oa_1","4_unseen","Unterricht",NA,"n","n",1,11939,4,2,""
"9","oa_1","42_expected","Boden","expected","j","j",1,17314,4,2,""
"10","oa_1","36_unseen","Schande",NA,"n","n",1,2570,4,2,""
"11","oa_1","40_expected","Affen","expected","j","j",1,3108,4,2,""
"12","oa_1","6_unseen","Gipfel",NA,"n","n",1,3000,4,2,""
"13","oa_1","39_unexpected","Hospital","unexpected","j","j",1,3433,4,2,""
"14","oa_1","3_unexpected","Haus","unexpected","j","n",0,4376,4,2,""
"15","oa_1","30_unseen","Toaster",NA,"n","n",1,1994,4,2,""
"16","oa_1","20_expected","Fahrrad","expected","j","j",1,1947,4,2,""
"17","oa_1","32_unseen","Buchstaben",NA,"n","n",1,1966,4,2,""
"18","oa_1","4_expected","Zähne","expected","j","j",1,4175,4,2,""
"19","oa_1","5_unseen","Kopfgeld",NA,"n","n",1,2289,4,2,""
"20","oa_1","9_unexpected","Menge","unexpected","j","j",1,4718,4,2,""
"21","oa_1","8_expected","Berge","expected","j","j",1,2850,4,2,""
"22","oa_1","15_unseen","Künstlerin",NA,"n","j",0,1809,4,2,""
"23","oa_1","6_expected","Tisch","expected","j","j",1,3657,4,2,""
"24","oa_1","34_expected","Bäckerei","expected","j","j",1,2519,4,2,""
"25","oa_1","1_unseen","Käsekuchen",NA,"n","j",0,2523,4,2,""
"26","oa_1","38_expected","Licht","expected","j","j",1,7222,4,2,""
"27","oa_1","23_unseen","Röhre",NA,"n","n",1,2672,4,2,""
"28","oa_1","14_expected","Ferien","expected","j","j",1,1852,4,2,""
"29","oa_1","39_unseen","Makler",NA,"n","n",1,2906,4,2,""
"30","oa_1","2_unseen","Technik",NA,"n","j",0,4055,4,2,""
"31","oa_1","18_expected","Orchester","expected","j","j",1,1309,4,2,""
"32","oa_1","37_unseen","Smaragd",NA,"n","n",1,2489,4,2,""
"33","oa_1","45_unexpected","Antwort","unexpected","j","n",0,4614,4,2,""
"34","oa_1","10_unseen","Zwerge",NA,"n","n",1,12814,4,2,""
"35","oa_1","17_unseen","Brüder",NA,"n","j",0,2546,4,2,""
"36","oa_1","7_unexpected","Wagen","unexpected","j","j",1,2092,4,2,""
"37","oa_1","37_unexpected","Waffe","unexpected","j","n",0,5241,4,2,""
"38","oa_1","40_unseen","Türke",NA,"n","n",1,3025,4,2,""
"39","oa_1","29_unseen","Materie",NA,"n","n",1,1305,4,2,""
"40","oa_1","49_expected","Paket","expected","j","j",1,1717,4,2,""
"41","oa_1","17_unexpected","Herausforderung","unexpected","j","j",1,2592,4,2,""
"42","oa_1","25_unexpected","Wappen","unexpected","j","n",0,1993,4,2,""
"43","oa_1","43_unexpected","Gatter","unexpected","j","n",0,1258,4,2,""
"44","oa_1","13_unseen","Frosch",NA,"n","j",0,4639,4,2,""
"45","oa_1","3_unseen","Lippen",NA,"n","j",0,3815,4,2,""
"46","oa_1","35_unexpected","Mund","unexpected","j","j",1,3223,4,2,""
"47","oa_1","33_unseen","Weste",NA,"n","j",0,1327,4,2,""
"48","oa_1","16_unseen","Antarktis",NA,"n","n",1,1250,4,2,""
"49","oa_1","25_unseen","Einzelkind",NA,"n","j",0,1760,4,2,""
"50","oa_1","28_unseen","Verschluss",NA,"n","n",1,1586,4,2,""
"51","oa_1","31_unexpected","Watte","unexpected","j","j",1,4698,4,2,""
"52","oa_1","19_unseen","Bombe",NA,"n","n",1,1447,4,2,""
"53","oa_1","2_expected","Auto","expected","j","j",1,1654,4,2,""
"54","oa_1","12_unseen","Wunsch",NA,"n","j",0,3052,4,2,""
"55","oa_1","36_expected","Sauna","expected","j","n",0,5417,4,2,""
"56","oa_1","16_expected","Schloss","expected","j","n",0,3658,4,2,""
"57","oa_1","10_expected","Band","expected","j","n",0,2616,4,2,""
"58","oa_1","8_unseen","Schutt",NA,"n","j",0,2808,4,2,""
"59","oa_1","24_unseen","Speisesaal",NA,"n","n",1,1888,4,2,""
"60","oa_1","1_unexpected","Schlafzimmer","unexpected","j","j",1,1301,4,2,""
"61","oa_1","27_unseen","Bildschirm",NA,"n","n",1,1841,4,2,""
"62","oa_1","27_unexpected","Platte","unexpected","j","n",0,2912,4,2,""
"63","oa_1","28_expected","Briefkasten","expected","j","j",1,2820,4,2,""
"64","oa_1","20_unseen","Wüste",NA,"n","n",1,1828,4,2,""
"65","oa_1","9_unseen","Sekunde",NA,"n","n",1,3667,4,2,""
"66","oa_1","24_expected","Wald","expected","j","j",1,3185,4,2,""
"67","oa_1","35_unseen","Mozart",NA,"n","n",1,3674,4,2,""
"68","oa_1","18_unseen","Pfadfinder",NA,"n","n",1,1568,4,2,""
"69","oa_1","15_unexpected","Untermieterin","unexpected","j","j",1,1713,4,2,""
"70","oa_1","30_expected","Polizei","expected","j","j",1,1093,4,2,""
"71","oa_1","34_unseen","Hypnose",NA,"n","n",1,1130,4,2,""
"72","oa_1","22_expected","Kühlschrank","expected","j","j",1,1437,4,2,""
"73","oa_1","22_unseen","Pfanne",NA,"n","n",1,2651,4,2,""
"74","oa_1","38_unseen","Felsen",NA,"n","n",1,1138,4,2,""
"75","oa_1","21_unexpected","Offizier","unexpected","j","j",1,1804,4,2,""
"76","oa_1","31_unseen","Salami",NA,"n","n",1,1988,4,2,""
"77","oa_1","26_unseen","Märchen",NA,"n","j",0,3293,4,2,""
"78","oa_1","47_expected","Tür","expected","j","n",0,4154,4,2,""
"79","oa_1","41_unexpected","Bock","unexpected","j","j",1,2333,4,2,""
"80","oa_1","21_unseen","Zigaretten",NA,"n","n",1,1928,4,2,""
"81","oa_2","11_expected","Müll","expected","j","n",0,21421,1,1,""
"82","oa_2","40_unexpected","Vogel","unexpected","j","n",0,6075,1,1,""
"83","oa_2","23_expected","Zug","expected","j","n",0,986,1,1,""
"84","oa_2","38_unseen","Felsen",NA,"n","n",1,730,1,1,""
"85","oa_2","9_unseen","Sekunde",NA,"n","n",1,669,1,1,""
"86","oa_2","12_unseen","Wunsch",NA,"n","n",1,578,1,1,""
"87","oa_2","33_unseen","Weste",NA,"n","n",1,595,1,1,""
"88","oa_2","30_unexpected","Geschäft","unexpected","j","n",0,715,1,1,""
"89","oa_2","3_expected","Tür","expected","j","n",0,654,1,1,""
"90","oa_2","25_expected","Flagge","expected","j","n",0,619,1,1,""
"91","oa_2","43_expected","Stall","expected","j","n",0,722,1,1,""
"92","oa_2","35_unseen","Mozart",NA,"n","n",1,613,1,1,""
"93","oa_2","12_unexpected","Bart","unexpected","j","n",0,613,1,1,""
"94","oa_2","17_unseen","Brüder",NA,"n","n",1,572,1,1,""
"95","oa_2","40_unseen","Türke",NA,"n","n",1,581,1,1,""
"96","oa_2","1_unseen","Käsekuchen",NA,"n","n",1,598,1,1,""
"97","oa_2","49_unexpected","Umschlag","unexpected","j","n",0,821,1,1,""
"98","oa_2","32_unseen","Buchstaben",NA,"n","n",1,636,1,1,""
"99","oa_2","25_unseen","Einzelkind",NA,"n","n",1,546,1,1,""
"100","oa_2","31_unseen","Salami",NA,"n","n",1,589,1,1,""
"101","oa_2","22_unexpected","Badewanne","unexpected","j","n",0,517,1,1,""
"102","oa_2","23_unseen","Röhre",NA,"n","n",1,664,1,1,""
"103","oa_2","24_unexpected","Gegend","unexpected","j","n",0,725,1,1,""
"104","oa_2","14_unexpected","Weihnachtsmann","unexpected","j","n",0,808,1,1,""
"105","oa_2","4_unseen","Unterricht",NA,"n","n",1,624,1,1,""
"106","oa_2","34_unexpected","Hotelzimmer","unexpected","j","n",0,639,1,1,""
"107","oa_2","17_expected","Rätsel","expected","j","n",0,709,1,1,""
"108","oa_2","10_unexpected","Rose","unexpected","j","n",0,769,1,1,""
"109","oa_2","14_unseen","Fahrzeuge",NA,"n","n",1,810,1,1,""
"110","oa_2","44_unexpected","Vorhang","unexpected","j","n",0,681,1,1,""
"111","oa_2","20_unseen","Wüste",NA,"n","n",1,1893,1,1,""
"112","oa_2","4_unexpected","Bauch","unexpected","j","n",0,914,1,1,""
"113","oa_2","13_unseen","Frosch",NA,"n","n",1,662,1,1,""
"114","oa_2","26_unexpected","Ratte","unexpected","j","n",0,707,1,1,""
"115","oa_2","38_unexpected","Computer","unexpected","j","n",0,703,1,1,""
"116","oa_2","31_expected","Teig","expected","j","n",0,755,1,1,""
"117","oa_2","47_unexpected","Fensterrahmen","unexpected","j","n",0,1012,1,1,""
"118","oa_2","10_unseen","Zwerge",NA,"n","n",1,676,1,1,""
"119","oa_2","8_unexpected","Osten","unexpected","j","n",0,769,1,1,""
"120","oa_2","9_expected","Ziel","expected","j","n",0,770,1,1,""
"121","oa_2","5_unseen","Kopfgeld",NA,"n","n",1,899,1,1,""
"122","oa_2","15_unseen","Künstlerin",NA,"n","n",1,718,1,1,""
"123","oa_2","39_expected","Apotheke","expected","j","n",0,609,1,1,""
"124","oa_2","35_expected","Nase","expected","j","n",0,729,1,1,""
"125","oa_2","27_unseen","Bildschirm",NA,"n","n",1,852,1,1,""
"126","oa_2","7_expected","Schiff","expected","j","n",0,650,1,1,""
"127","oa_2","26_unseen","Märchen",NA,"n","n",1,1039,1,1,""
"128","oa_2","19_unseen","Bombe",NA,"n","n",1,677,1,1,""
"129","oa_2","27_expected","Herd","expected","j","n",0,634,1,1,""
"130","oa_2","16_unseen","Antarktis",NA,"n","n",1,633,1,1,""
"131","oa_2","29_expected","Geheimnis","expected","j","n",0,1047,1,1,""
"132","oa_2","7_unseen","Zeichnung",NA,"n","n",1,717,1,1,""
"133","oa_2","6_unseen","Gipfel",NA,"n","n",1,848,1,1,""
"134","oa_2","30_unseen","Toaster",NA,"n","n",1,606,1,1,""
"135","oa_2","8_unseen","Schutt",NA,"n","n",1,789,1,1,""
"136","oa_2","36_unexpected","Salon","unexpected","j","n",0,758,1,1,""
"137","oa_2","11_unseen","Zuneigung",NA,"n","n",1,807,1,1,""
"138","oa_2","16_unexpected","Bus","unexpected","j","n",0,727,1,1,""
"139","oa_2","19_expected","Fenster","expected","j","n",0,1066,1,1,""
"140","oa_2","39_unseen","Makler",NA,"n","n",1,695,1,1,""
"141","oa_2","41_expected","Kühe","expected","j","n",0,675,1,1,""
"142","oa_2","2_unexpected","Gruppe","unexpected","j","n",0,624,1,1,""
"143","oa_2","42_unexpected","Decke","unexpected","j","n",0,663,1,1,""
"144","oa_2","21_expected","Wunde","expected","j","n",0,829,1,1,""
"145","oa_2","37_unseen","Smaragd",NA,"n","n",1,604,1,1,""
"146","oa_2","45_expected","Ja-Wort","expected","j","n",0,1987,1,1,""
"147","oa_2","28_unseen","Verschluss",NA,"n","n",1,828,1,1,""
"148","oa_2","21_unseen","Zigaretten",NA,"n","n",1,699,1,1,""
"149","oa_2","3_unseen","Lippen",NA,"n","n",1,718,1,1,""
"150","oa_2","36_unseen","Schande",NA,"n","n",1,689,1,1,""
"151","oa_2","20_unexpected","Ausrüstung","unexpected","j","n",0,694,1,1,""
"152","oa_2","15_expected","Schlüsseldienst","expected","j","n",0,1450,1,1,""
"153","oa_2","24_unseen","Speisesaal",NA,"n","n",1,720,1,1,""
"154","oa_2","22_unseen","Pfanne",NA,"n","n",1,747,1,1,""
"155","oa_2","29_unseen","Materie",NA,"n","n",1,901,1,1,""
"156","oa_2","18_unseen","Pfadfinder",NA,"n","n",1,697,1,1,""
"157","oa_2","33_expected","Sonne","expected","j","n",0,629,1,1,""
"158","oa_2","2_unseen","Technik",NA,"n","n",1,668,1,1,""
"159","oa_2","48_expected","Wand","expected","j","n",0,841,1,1,""
"160","oa_2","34_unseen","Hypnose",NA,"n","n",1,679,1,1,""
"161","oa_3","13_unexpected","Couch","unexpected","j","n",0,1912,3,2,"XXXX"
"162","oa_3","14_unseen","Fahrzeuge",NA,"n","n",1,2676,3,2,"XXXX"
"163","oa_3","5_unexpected","Grundstück","unexpected","j","n",0,2441,3,2,"XXXX"
"164","oa_3","7_unseen","Zeichnung",NA,"n","j",0,7936,3,2,"XXXX"
"165","oa_3","48_unexpected","Dachboden","unexpected","j","j",1,4861,3,2,"XXXX"
"166","oa_3","11_unseen","Zuneigung",NA,"n","n",1,1676,3,2,"XXXX"
"167","oa_3","19_unexpected","Klappe","unexpected","j","n",0,4793,3,2,"XXXX"
"168","oa_3","4_unseen","Unterricht",NA,"n","j",0,2539,3,2,"XXXX"
"169","oa_3","42_expected","Boden","expected","j","j",1,8421,3,2,"XXXX"
"170","oa_3","36_unseen","Schande",NA,"n","n",1,1623,3,2,"XXXX"
"171","oa_3","40_expected","Affen","expected","j","n",0,3358,3,2,"XXXX"
"172","oa_3","6_unseen","Gipfel",NA,"n","n",1,9049,3,2,"XXXX"
"173","oa_3","39_unexpected","Hospital","unexpected","j","n",0,2681,3,2,"XXXX"
"174","oa_3","3_unexpected","Haus","unexpected","j","j",1,2406,3,2,"XXXX"
"175","oa_3","30_unseen","Toaster",NA,"n","n",1,1318,3,2,"XXXX"
"176","oa_3","20_expected","Fahrrad","expected","j","n",0,4986,3,2,"XXXX"
"177","oa_3","32_unseen","Buchstaben",NA,"n","n",1,3107,3,2,"XXXX"
"178","oa_3","4_expected","Zähne","expected","j","n",0,6864,3,2,"XXXX"
"179","oa_3","5_unseen","Kopfgeld",NA,"n","n",1,1070,3,2,"XXXX"
"180","oa_3","9_unexpected","Menge","unexpected","j","j",1,4451,3,2,"XXXX"
"181","oa_3","8_expected","Berge","expected","j","j",1,3434,3,2,"XXXX"
"182","oa_3","15_unseen","Künstlerin",NA,"n","n",1,2001,3,2,"XXXX"
"183","oa_3","6_expected","Tisch","expected","j","j",1,2489,3,2,"XXXX"
"184","oa_3","34_expected","Bäckerei","expected","j","n",0,3678,3,2,"XXXX"
"185","oa_3","1_unseen","Käsekuchen",NA,"n","n",1,1356,3,2,"XXXX"
"186","oa_3","38_expected","Licht","expected","j","n",0,8918,3,2,"XXXX"
"187","oa_3","23_unseen","Röhre",NA,"n","n",1,2356,3,2,"XXXX"
"188","oa_3","14_expected","Ferien","expected","j","j",1,1318,3,2,"XXXX"
"189","oa_3","39_unseen","Makler",NA,"n","n",1,1410,3,2,"XXXX"
"190","oa_3","2_unseen","Technik",NA,"n","n",1,1153,3,2,"XXXX"
"191","oa_3","18_expected","Orchester","expected","j","j",1,11954,3,2,"XXXX"
"192","oa_3","37_unseen","Smaragd",NA,"n","n",1,1352,3,2,"XXXX"
"193","oa_3","45_unexpected","Antwort","unexpected","j","j",1,5306,3,2,"XXXX"
"194","oa_3","10_unseen","Zwerge",NA,"n","n",1,1975,3,2,"XXXX"
"195","oa_3","17_unseen","Brüder",NA,"n","n",1,2688,3,2,"XXXX"
"196","oa_3","7_unexpected","Wagen","unexpected","j","n",0,5245,3,2,"XXXX"
"197","oa_3","37_unexpected","Waffe","unexpected","j","n",0,1197,3,2,"XXXX"
"198","oa_3","40_unseen","Türke",NA,"n","n",1,2038,3,2,"XXXX"
"199","oa_3","29_unseen","Materie",NA,"n","n",1,1436,3,2,"XXXX"
"200","oa_3","49_expected","Paket","expected","j","n",0,2419,3,2,"XXXX"
"201","oa_3","17_unexpected","Herausforderung","unexpected","j","j",1,9227,3,2,"XXXX"
"202","oa_3","25_unexpected","Wappen","unexpected","j","n",0,1261,3,2,"XXXX"
"203","oa_3","43_unexpected","Gatter","unexpected","j","n",0,1210,3,2,"XXXX"
"204","oa_3","13_unseen","Frosch",NA,"n","n",1,7953,3,2,"XXXX"
"205","oa_3","3_unseen","Lippen",NA,"n","j",0,4869,3,2,"XXXX"
"206","oa_3","35_unexpected","Mund","unexpected","j","j",1,7716,3,2,"XXXX"
"207","oa_3","33_unseen","Weste",NA,"n","n",1,1353,3,2,"XXXX"
"208","oa_3","16_unseen","Antarktis",NA,"n","n",1,1419,3,2,"XXXX"
"209","oa_3","25_unseen","Einzelkind",NA,"n","n",1,3202,3,2,"XXXX"
"210","oa_3","28_unseen","Verschluss",NA,"n","n",1,3139,3,2,"XXXX"
"211","oa_3","31_unexpected","Watte","unexpected","j","n",0,8262,3,2,"XXXX"
"212","oa_3","19_unseen","Bombe",NA,"n","n",1,1014,3,2,"XXXX"
"213","oa_3","2_expected","Auto","expected","j","j",1,1101,3,2,"XXXX"
"214","oa_3","12_unseen","Wunsch",NA,"n","j",0,1353,3,2,"XXXX"
"215","oa_3","36_expected","Sauna","expected","j","n",0,1683,3,2,"XXXX"
"216","oa_3","16_expected","Schloss","expected","j","n",0,8039,3,2,"XXXX"
"217","oa_3","10_expected","Band","expected","j","n",0,2064,3,2,"XXXX"
"218","oa_3","8_unseen","Schutt",NA,"n","n",1,1093,3,2,"XXXX"
"219","oa_3","24_unseen","Speisesaal",NA,"n","n",1,2329,3,2,"XXXX"
"220","oa_3","1_unexpected","Schlafzimmer","unexpected","j","n",0,3789,3,2,"XXXX"
"221","oa_3","27_unseen","Bildschirm",NA,"n","n",1,2046,3,2,"XXXX"
"222","oa_3","27_unexpected","Platte","unexpected","j","n",0,7469,3,2,"XXXX"
"223","oa_3","28_expected","Briefkasten","expected","j","j",1,4533,3,2,"XXXX"
"224","oa_3","20_unseen","Wüste",NA,"n","j",0,1312,3,2,"XXXX"
"225","oa_3","9_unseen","Sekunde",NA,"n","n",1,2828,3,2,"XXXX"
"226","oa_3","24_expected","Wald","expected","j","j",1,4772,3,2,"XXXX"
"227","oa_3","35_unseen","Mozart",NA,"n","n",1,4694,3,2,"XXXX"
"228","oa_3","18_unseen","Pfadfinder",NA,"n","j",0,10051,3,2,"XXXX"
"229","oa_3","15_unexpected","Untermieterin","unexpected","j","n",0,1076,3,2,"XXXX"
"230","oa_3","30_expected","Polizei","expected","j","n",0,6409,3,2,"XXXX"
"231","oa_3","34_unseen","Hypnose",NA,"n","n",1,1003,3,2,"XXXX"
"232","oa_3","22_expected","Kühlschrank","expected","j","n",0,9218,3,2,"XXXX"
"233","oa_3","22_unseen","Pfanne",NA,"n","n",1,3652,3,2,"XXXX"
"234","oa_3","38_unseen","Felsen",NA,"n","n",1,1707,3,2,"XXXX"
"235","oa_3","21_unexpected","Offizier","unexpected","j","n",0,1143,3,2,"XXXX"
"236","oa_3","31_unseen","Salami",NA,"n","n",1,1025,3,2,"XXXX"
"237","oa_3","26_unseen","Märchen",NA,"n","n",1,7384,3,2,"XXXX"
"238","oa_3","47_expected","Tür","expected","j","n",0,7658,3,2,"XXXX"
"239","oa_3","41_unexpected","Bock","unexpected","j","n",0,1170,3,2,"XXXX"
"240","oa_3","21_unseen","Zigaretten",NA,"n","n",1,827,3,2,"XXXX"
"241","oa_4","13_unexpected","Couch","unexpected","j","j",1,4273,2,2,""
"242","oa_4","14_unseen","Fahrzeuge",NA,"n","j",0,3975,2,2,""
"243","oa_4","5_unexpected","Grundstück","unexpected","j","n",0,4193,2,2,""
"244","oa_4","7_unseen","Zeichnung",NA,"n","j",0,1931,2,2,""
"245","oa_4","48_unexpected","Dachboden","unexpected","j","j",1,1318,2,2,""
"246","oa_4","11_unseen","Zuneigung",NA,"n","j",0,4160,2,2,""
"247","oa_4","19_unexpected","Klappe","unexpected","j","j",1,2043,2,2,""
"248","oa_4","4_unseen","Unterricht",NA,"n","j",0,1457,2,2,""
"249","oa_4","42_expected","Boden","expected","j","j",1,991,2,2,""
"250","oa_4","36_unseen","Schande",NA,"n","n",1,2456,2,2,""
"251","oa_4","40_expected","Affen","expected","j","j",1,1022,2,2,""
"252","oa_4","6_unseen","Gipfel",NA,"n","j",0,1637,2,2,""
"253","oa_4","39_unexpected","Hospital","unexpected","j","n",0,3836,2,2,""
"254","oa_4","3_unexpected","Haus","unexpected","j","j",1,1107,2,2,""
"255","oa_4","30_unseen","Toaster",NA,"n","j",0,1959,2,2,""
"256","oa_4","20_expected","Fahrrad","expected","j","j",1,1185,2,2,""
"257","oa_4","32_unseen","Buchstaben",NA,"n","n",1,4825,2,2,""
"258","oa_4","4_expected","Zähne","expected","j","j",1,1978,2,2,""
"259","oa_4","5_unseen","Kopfgeld",NA,"n","n",1,2131,2,2,""
"260","oa_4","9_unexpected","Menge","unexpected","j","j",1,2726,2,2,""
"261","oa_4","8_expected","Berge","expected","j","j",1,1114,2,2,""
"262","oa_4","15_unseen","Künstlerin",NA,"n","j",0,2220,2,2,""
"263","oa_4","6_expected","Tisch","expected","j","j",1,3004,2,2,""
"264","oa_4","34_expected","Bäckerei","expected","j","j",1,828,2,2,""
"265","oa_4","1_unseen","Käsekuchen",NA,"n","n",1,2099,2,2,""
"266","oa_4","38_expected","Licht","expected","j","j",1,4543,2,2,""
"267","oa_4","23_unseen","Röhre",NA,"n","n",1,3347,2,2,""
"268","oa_4","14_expected","Ferien","expected","j","j",1,1486,2,2,""
"269","oa_4","39_unseen","Makler",NA,"n","n",1,1410,2,2,""
"270","oa_4","2_unseen","Technik",NA,"n","n",1,3498,2,2,""
"271","oa_4","18_expected","Orchester","expected","j","j",1,1247,2,2,""
"272","oa_4","37_unseen","Smaragd",NA,"n","n",1,1925,2,2,""
"273","oa_4","45_unexpected","Antwort","unexpected","j","j",1,2161,2,2,""
"274","oa_4","10_unseen","Zwerge",NA,"n","j",0,1675,2,2,""
"275","oa_4","17_unseen","Brüder",NA,"n","n",1,4936,2,2,""
"276","oa_4","7_unexpected","Wagen","unexpected","j","j",1,5387,2,2,""
"277","oa_4","37_unexpected","Waffe","unexpected","j","j",1,2349,2,2,""
"278","oa_4","40_unseen","Türke",NA,"n","n",1,2063,2,2,""
"279","oa_4","29_unseen","Materie",NA,"n","n",1,2493,2,2,""
"280","oa_4","49_expected","Paket","expected","j","j",1,4882,2,2,""
"281","oa_4","17_unexpected","Herausforderung","unexpected","j","j",1,4184,2,2,""
"282","oa_4","25_unexpected","Wappen","unexpected","j","j",1,3041,2,2,""
"283","oa_4","43_unexpected","Gatter","unexpected","j","n",0,2000,2,2,""
"284","oa_4","13_unseen","Frosch",NA,"n","n",1,2873,2,2,""
"285","oa_4","3_unseen","Lippen",NA,"n","n",1,5654,2,2,""
"286","oa_4","35_unexpected","Mund","unexpected","j","n",0,5454,2,2,""
"287","oa_4","33_unseen","Weste",NA,"n","n",1,4164,2,2,""
"288","oa_4","16_unseen","Antarktis",NA,"n","n",1,1335,2,2,""
"289","oa_4","25_unseen","Einzelkind",NA,"n","n",1,4657,2,2,""
"290","oa_4","28_unseen","Verschluss",NA,"n","j",0,2096,2,2,""
"291","oa_4","31_unexpected","Watte","unexpected","j","j",1,5548,2,2,""
"292","oa_4","19_unseen","Bombe",NA,"n","n",1,1912,2,2,""
"293","oa_4","2_expected","Auto","expected","j","j",1,1756,2,2,""
"294","oa_4","12_unseen","Wunsch",NA,"n","j",0,2006,2,2,""
"295","oa_4","36_expected","Sauna","expected","j","j",1,1294,2,2,""
"296","oa_4","16_expected","Schloss","expected","j","j",1,1490,2,2,""
"297","oa_4","10_expected","Band","expected","j","n",0,6031,2,2,""
"298","oa_4","8_unseen","Schutt",NA,"n","n",1,1687,2,2,""
"299","oa_4","24_unseen","Speisesaal",NA,"n","n",1,5100,2,2,""
"300","oa_4","1_unexpected","Schlafzimmer","unexpected","j","j",1,2201,2,2,""
"301","oa_4","27_unseen","Bildschirm",NA,"n","j",0,3953,2,2,""
"302","oa_4","27_unexpected","Platte","unexpected","j","n",0,3451,2,2,""
"303","oa_4","28_expected","Briefkasten","expected","j","j",1,1450,2,2,""
"304","oa_4","20_unseen","Wüste",NA,"n","j",0,2391,2,2,""
"305","oa_4","9_unseen","Sekunde",NA,"n","n",1,2888,2,2,""
"306","oa_4","24_expected","Wald","expected","j","j",1,1637,2,2,""
"307","oa_4","35_unseen","Mozart",NA,"n","n",1,2508,2,2,""
"308","oa_4","18_unseen","Pfadfinder",NA,"n","n",1,2176,2,2,""
"309","oa_4","15_unexpected","Untermieterin","unexpected","j","j",1,1546,2,2,""
"310","oa_4","30_expected","Polizei","expected","j","j",1,772,2,2,""
"311","oa_4","34_unseen","Hypnose",NA,"n","n",1,1461,2,2,""
"312","oa_4","22_expected","Kühlschrank","expected","j","j",1,1491,2,2,""
"313","oa_4","22_unseen","Pfanne",NA,"n","n",1,2088,2,2,""
"314","oa_4","38_unseen","Felsen",NA,"n","n",1,2221,2,2,""
"315","oa_4","21_unexpected","Offizier","unexpected","j","j",1,1004,2,2,""
"316","oa_4","31_unseen","Salami",NA,"n","n",1,1724,2,2,""
"317","oa_4","26_unseen","Märchen",NA,"n","j",0,1823,2,2,""
"318","oa_4","47_expected","Tür","expected","j","j",1,1143,2,2,""
"319","oa_4","41_unexpected","Bock","unexpected","j","j",1,3832,2,2,""
"320","oa_4","21_unseen","Zigaretten",NA,"n","n",1,2111,2,2,""
"321","oa_5","13_unexpected","Couch","unexpected","j","j",1,9490,4,2,""
"322","oa_5","14_unseen","Fahrzeuge",NA,"n","n",1,5137,4,2,""
"323","oa_5","5_unexpected","Grundstück","unexpected","j","j",1,2133,4,2,""
"324","oa_5","7_unseen","Zeichnung",NA,"n","j",0,2391,4,2,""
"325","oa_5","48_unexpected","Dachboden","unexpected","j","j",1,1263,4,2,""
"326","oa_5","11_unseen","Zuneigung",NA,"n","j",0,1453,4,2,""
"327","oa_5","19_unexpected","Klappe","unexpected","j","n",0,2547,4,2,""
"328","oa_5","4_unseen","Unterricht",NA,"n","j",0,1693,4,2,""
"329","oa_5","42_expected","Boden","expected","j","j",1,2210,4,2,""
"330","oa_5","36_unseen","Schande",NA,"n","n",1,3034,4,2,""
"331","oa_5","40_expected","Affen","expected","j","j",1,1809,4,2,""
"332","oa_5","6_unseen","Gipfel",NA,"n","j",0,1121,4,2,""
"333","oa_5","39_unexpected","Hospital","unexpected","j","j",1,876,4,2,""
"334","oa_5","3_unexpected","Haus","unexpected","j","j",1,825,4,2,""
"335","oa_5","30_unseen","Toaster",NA,"n","j",0,1168,4,2,""
"336","oa_5","20_expected","Fahrrad","expected","j","j",1,922,4,2,""
"337","oa_5","32_unseen","Buchstaben",NA,"n","j",0,1125,4,2,""
"338","oa_5","4_expected","Zähne","expected","j","j",1,920,4,2,""
"339","oa_5","5_unseen","Kopfgeld",NA,"n","n",1,2387,4,2,""
"340","oa_5","9_unexpected","Menge","unexpected","j","n",0,2972,4,2,""
"341","oa_5","8_expected","Berge","expected","j","j",1,1581,4,2,""
"342","oa_5","15_unseen","Künstlerin",NA,"n","n",1,6526,4,2,""
"343","oa_5","6_expected","Tisch","expected","j","j",1,1451,4,2,""
"344","oa_5","34_expected","Bäckerei","expected","j","j",1,1249,4,2,""
"345","oa_5","1_unseen","Käsekuchen",NA,"n","j",0,895,4,2,""
"346","oa_5","38_expected","Licht","expected","j","j",1,963,4,2,""
"347","oa_5","23_unseen","Röhre",NA,"n","n",1,1716,4,2,""
"348","oa_5","14_expected","Ferien","expected","j","j",1,1439,4,2,""
"349","oa_5","39_unseen","Makler",NA,"n","j",0,1309,4,2,""
"350","oa_5","2_unseen","Technik",NA,"n","j",0,881,4,2,""
"351","oa_5","18_expected","Orchester","expected","j","j",1,998,4,2,""
"352","oa_5","37_unseen","Smaragd",NA,"n","j",0,2645,4,2,""
"353","oa_5","45_unexpected","Antwort","unexpected","j","j",1,1484,4,2,""
"354","oa_5","10_unseen","Zwerge",NA,"n","j",0,2369,4,2,""
"355","oa_5","17_unseen","Brüder",NA,"n","j",0,1146,4,2,""
"356","oa_5","7_unexpected","Wagen","unexpected","j","j",1,1277,4,2,""
"357","oa_5","37_unexpected","Waffe","unexpected","j","n",0,1746,4,2,""
"358","oa_5","40_unseen","Türke",NA,"n","j",0,1597,4,2,""
"359","oa_5","29_unseen","Materie",NA,"n","n",1,2069,4,2,""
"360","oa_5","49_expected","Paket","expected","j","j",1,1443,4,2,""
"361","oa_5","17_unexpected","Herausforderung","unexpected","j","j",1,5329,4,2,""
"362","oa_5","25_unexpected","Wappen","unexpected","j","j",1,1446,4,2,""
"363","oa_5","43_unexpected","Gatter","unexpected","j","n",0,1908,4,2,""
"364","oa_5","13_unseen","Frosch",NA,"n","j",0,840,4,2,""
"365","oa_5","3_unseen","Lippen",NA,"n","j",0,1599,4,2,""
"366","oa_5","35_unexpected","Mund","unexpected","j","j",1,815,4,2,""
"367","oa_5","33_unseen","Weste",NA,"n","n",1,2630,4,2,""
"368","oa_5","16_unseen","Antarktis",NA,"n","j",0,1957,4,2,""
"369","oa_5","25_unseen","Einzelkind",NA,"n","j",0,1503,4,2,""
"370","oa_5","28_unseen","Verschluss",NA,"n","j",0,1187,4,2,""
"371","oa_5","31_unexpected","Watte","unexpected","j","j",1,2515,4,2,""
"372","oa_5","19_unseen","Bombe",NA,"n","n",1,2878,4,2,""
"373","oa_5","2_expected","Auto","expected","j","j",1,1012,4,2,""
"374","oa_5","12_unseen","Wunsch",NA,"n","j",0,932,4,2,""
"375","oa_5","36_expected","Sauna","expected","j","j",1,862,4,2,""
"376","oa_5","16_expected","Schloss","expected","j","j",1,804,4,2,""
"377","oa_5","10_expected","Band","expected","j","j",1,971,4,2,""
"378","oa_5","8_unseen","Schutt",NA,"n","n",1,2060,4,2,""
"379","oa_5","24_unseen","Speisesaal",NA,"n","j",0,1274,4,2,""
"380","oa_5","1_unexpected","Schlafzimmer","unexpected","j","j",1,920,4,2,""
"381","oa_5","27_unseen","Bildschirm",NA,"n","j",0,1179,4,2,""
"382","oa_5","27_unexpected","Platte","unexpected","j","j",1,980,4,2,""
"383","oa_5","28_expected","Briefkasten","expected","j","j",1,2133,4,2,""
"384","oa_5","20_unseen","Wüste",NA,"n","j",0,1264,4,2,""
"385","oa_5","9_unseen","Sekunde",NA,"n","n",1,2317,4,2,""
"386","oa_5","24_expected","Wald","expected","j","j",1,1089,4,2,""
"387","oa_5","35_unseen","Mozart",NA,"n","j",0,1021,4,2,""
"388","oa_5","18_unseen","Pfadfinder",NA,"n","j",0,1036,4,2,""
"389","oa_5","15_unexpected","Untermieterin","unexpected","j","j",1,1347,4,2,""
"390","oa_5","30_expected","Polizei","expected","j","j",1,1101,4,2,""
"391","oa_5","34_unseen","Hypnose",NA,"n","n",1,2545,4,2,""
"392","oa_5","22_expected","Kühlschrank","expected","j","j",1,908,4,2,""
"393","oa_5","22_unseen","Pfanne",NA,"n","j",0,848,4,2,""
"394","oa_5","38_unseen","Felsen",NA,"n","j",0,1661,4,2,""
"395","oa_5","21_unexpected","Offizier","unexpected","j","j",1,1083,4,2,""
"396","oa_5","31_unseen","Salami",NA,"n","j",0,1144,4,2,""
"397","oa_5","26_unseen","Märchen",NA,"n","j",0,921,4,2,""
"398","oa_5","47_expected","Tür","expected","j","j",1,756,4,2,""
"399","oa_5","41_unexpected","Bock","unexpected","j","j",1,14102,4,2,""
"400","oa_5","21_unseen","Zigaretten",NA,"n","j",0,2046,4,2,""
"401","oa_6","11_expected","Müll","expected","j","j",1,3111,1,1,""
"402","oa_6","40_unexpected","Vogel","unexpected","j","j",1,3299,1,1,""
"403","oa_6","23_expected","Zug","expected","j","n",0,10672,1,1,""
"404","oa_6","38_unseen","Felsen",NA,"n","j",0,4952,1,1,""
"405","oa_6","9_unseen","Sekunde",NA,"n","n",1,2220,1,1,""
"406","oa_6","12_unseen","Wunsch",NA,"n","n",1,7291,1,1,""
"407","oa_6","33_unseen","Weste",NA,"n","n",1,3266,1,1,""
"408","oa_6","30_unexpected","Geschäft","unexpected","j","j",1,7271,1,1,""
"409","oa_6","3_expected","Tür","expected","j","j",1,7767,1,1,""
"410","oa_6","25_expected","Flagge","expected","j","j",1,1578,1,1,""
"411","oa_6","43_expected","Stall","expected","j","j",1,6419,1,1,""
"412","oa_6","35_unseen","Mozart",NA,"n","n",1,3995,1,1,""
"413","oa_6","12_unexpected","Bart","unexpected","j","j",1,8101,1,1,""
"414","oa_6","17_unseen","Brüder",NA,"n","j",0,6859,1,1,""
"415","oa_6","40_unseen","Türke",NA,"n","n",1,2587,1,1,""
"416","oa_6","1_unseen","Käsekuchen",NA,"n","n",1,3220,1,1,""
"417","oa_6","49_unexpected","Umschlag","unexpected","j","j",1,4028,1,1,""
"418","oa_6","32_unseen","Buchstaben",NA,"n","n",1,7292,1,1,""
"419","oa_6","25_unseen","Einzelkind",NA,"n","n",1,2258,1,1,""
"420","oa_6","31_unseen","Salami",NA,"n","n",1,1472,1,1,""
"421","oa_6","22_unexpected","Badewanne","unexpected","j","j",1,3990,1,1,""
"422","oa_6","23_unseen","Röhre",NA,"n","n",1,4847,1,1,""
"423","oa_6","24_unexpected","Gegend","unexpected","j","j",1,4718,1,1,""
"424","oa_6","14_unexpected","Weihnachtsmann","unexpected","j","j",1,1354,1,1,""
"425","oa_6","4_unseen","Unterricht",NA,"n","j",0,1516,1,1,""
"426","oa_6","34_unexpected","Hotelzimmer","unexpected","j","j",1,2456,1,1,""
"427","oa_6","17_expected","Rätsel","expected","j","j",1,8021,1,1,""
"428","oa_6","10_unexpected","Rose","unexpected","j","j",1,2486,1,1,""
"429","oa_6","14_unseen","Fahrzeuge",NA,"n","n",1,3835,1,1,""
"430","oa_6","44_unexpected","Vorhang","unexpected","j","j",1,2291,1,1,""
"431","oa_6","20_unseen","Wüste",NA,"n","j",0,1303,1,1,""
"432","oa_6","4_unexpected","Bauch","unexpected","j","j",1,1019,1,1,""
"433","oa_6","13_unseen","Frosch",NA,"n","j",0,6290,1,1,""
"434","oa_6","26_unexpected","Ratte","unexpected","j","j",1,737,1,1,""
"435","oa_6","38_unexpected","Computer","unexpected","j","j",1,899,1,1,""
"436","oa_6","31_expected","Teig","expected","j","j",1,1127,1,1,""
"437","oa_6","47_unexpected","Fensterrahmen","unexpected","j","n",0,7394,1,1,""
"438","oa_6","10_unseen","Zwerge",NA,"n","n",1,7268,1,1,""
"439","oa_6","8_unexpected","Osten","unexpected","j","j",1,3796,1,1,""
"440","oa_6","9_expected","Ziel","expected","j","n",0,7221,1,1,""
"441","oa_6","5_unseen","Kopfgeld",NA,"n","n",1,1286,1,1,""
"442","oa_6","15_unseen","Künstlerin",NA,"n","n",1,2619,1,1,""
"443","oa_6","39_expected","Apotheke","expected","j","j",1,1442,1,1,""
"444","oa_6","35_expected","Nase","expected","j","j",1,2832,1,1,""
"445","oa_6","27_unseen","Bildschirm",NA,"n","n",1,6895,1,1,""
"446","oa_6","7_expected","Schiff","expected","j","j",1,5093,1,1,""
"447","oa_6","26_unseen","Märchen",NA,"n","n",1,9339,1,1,""
"448","oa_6","19_unseen","Bombe",NA,"n","j",0,5536,1,1,""
"449","oa_6","27_expected","Herd","expected","j","j",1,948,1,1,""
"450","oa_6","16_unseen","Antarktis",NA,"n","n",1,1670,1,1,""
"451","oa_6","29_expected","Geheimnis","expected","j","j",1,2707,1,1,""
"452","oa_6","7_unseen","Zeichnung",NA,"n","n",1,5800,1,1,""
"453","oa_6","6_unseen","Gipfel",NA,"n","n",1,6641,1,1,""
"454","oa_6","30_unseen","Toaster",NA,"n","n",1,2345,1,1,""
"455","oa_6","8_unseen","Schutt",NA,"n","n",1,1652,1,1,""
"456","oa_6","36_unexpected","Salon","unexpected","j","j",1,2690,1,1,""
"457","oa_6","11_unseen","Zuneigung",NA,"n","n",1,1655,1,1,""
"458","oa_6","16_unexpected","Bus","unexpected","j","j",1,2261,1,1,""
"459","oa_6","19_expected","Fenster","expected","j","j",1,1843,1,1,""
"460","oa_6","39_unseen","Makler",NA,"n","n",1,1433,1,1,""
"461","oa_6","41_expected","Kühe","expected","j","j",1,3608,1,1,""
"462","oa_6","2_unexpected","Gruppe","unexpected","j","j",1,3792,1,1,""
"463","oa_6","42_unexpected","Decke","unexpected","j","j",1,874,1,1,""
"464","oa_6","21_expected","Wunde","expected","j","j",1,1639,1,1,""
"465","oa_6","37_unseen","Smaragd",NA,"n","n",1,1133,1,1,""
"466","oa_6","45_expected","Ja-Wort","expected","j","j",1,1280,1,1,""
"467","oa_6","28_unseen","Verschluss",NA,"n","n",1,8093,1,1,""
"468","oa_6","21_unseen","Zigaretten",NA,"n","n",1,3204,1,1,""
"469","oa_6","3_unseen","Lippen",NA,"n","n",1,5084,1,1,""
"470","oa_6","36_unseen","Schande",NA,"n","n",1,1258,1,1,""
"471","oa_6","20_unexpected","Ausrüstung","unexpected","j","n",0,2960,1,1,""
"472","oa_6","15_expected","Schlüsseldienst","expected","j","j",1,1370,1,1,""
"473","oa_6","24_unseen","Speisesaal",NA,"n","j",0,9595,1,1,""
"474","oa_6","22_unseen","Pfanne",NA,"n","n",1,2478,1,1,""
"475","oa_6","29_unseen","Materie",NA,"n","n",1,1340,1,1,""
"476","oa_6","18_unseen","Pfadfinder",NA,"n","n",1,5670,1,1,""
"477","oa_6","33_expected","Sonne","expected","j","j",1,1452,1,1,""
"478","oa_6","2_unseen","Technik",NA,"n","n",1,4098,1,1,""
"479","oa_6","48_expected","Wand","expected","j","j",1,1855,1,1,""
"480","oa_6","34_unseen","Hypnose",NA,"n","n",1,3261,1,1,""
"481","oa_7","13_unexpected","Couch","unexpected","j","j",1,2289,3,2,"XXXX"
"482","oa_7","14_unseen","Fahrzeuge",NA,"n","n",1,3326,3,2,"XXXX"
"483","oa_7","5_unexpected","Grundstück","unexpected","j","j",1,2858,3,2,"XXXX"
"484","oa_7","7_unseen","Zeichnung",NA,"n","n",1,3103,3,2,"XXXX"
"485","oa_7","48_unexpected","Dachboden","unexpected","j","j",1,1684,3,2,"XXXX"
"486","oa_7","11_unseen","Zuneigung",NA,"n","n",1,2089,3,2,"XXXX"
"487","oa_7","19_unexpected","Klappe","unexpected","j","n",0,1525,3,2,"XXXX"
"488","oa_7","4_unseen","Unterricht",NA,"n","j",0,1921,3,2,"XXXX"
"489","oa_7","42_expected","Boden","expected","j","j",1,1988,3,2,"XXXX"
"490","oa_7","36_unseen","Schande",NA,"n","n",1,1645,3,2,"XXXX"
"491","oa_7","40_expected","Affen","expected","j","n",0,1147,3,2,"XXXX"
"492","oa_7","6_unseen","Gipfel",NA,"n","n",1,3909,3,2,"XXXX"
"493","oa_7","39_unexpected","Hospital","unexpected","j","j",1,1650,3,2,"XXXX"
"494","oa_7","3_unexpected","Haus","unexpected","j","j",1,816,3,2,"XXXX"
"495","oa_7","30_unseen","Toaster",NA,"n","n",1,3871,3,2,"XXXX"
"496","oa_7","20_expected","Fahrrad","expected","j","j",1,829,3,2,"XXXX"
"497","oa_7","32_unseen","Buchstaben",NA,"n","j",0,1372,3,2,"XXXX"
"498","oa_7","4_expected","Zähne","expected","j","n",0,2421,3,2,"XXXX"
"499","oa_7","5_unseen","Kopfgeld",NA,"n","n",1,1165,3,2,"XXXX"
"500","oa_7","9_unexpected","Menge","unexpected","j","j",1,2046,3,2,"XXXX"
"501","oa_7","8_expected","Berge","expected","j","j",1,780,3,2,"XXXX"
"502","oa_7","15_unseen","Künstlerin",NA,"n","j",0,1437,3,2,"XXXX"
"503","oa_7","6_expected","Tisch","expected","j","j",1,795,3,2,"XXXX"
"504","oa_7","34_expected","Bäckerei","expected","j","j",1,995,3,2,"XXXX"
"505","oa_7","1_unseen","Käsekuchen",NA,"n","n",1,3236,3,2,"XXXX"
"506","oa_7","38_expected","Licht","expected","j","j",1,6067,3,2,"XXXX"
"507","oa_7","23_unseen","Röhre",NA,"n","n",1,2034,3,2,"XXXX"
"508","oa_7","14_expected","Ferien","expected","j","j",1,961,3,2,"XXXX"
"509","oa_7","39_unseen","Makler",NA,"n","j",0,1482,3,2,"XXXX"
"510","oa_7","2_unseen","Technik",NA,"n","j",0,847,3,2,"XXXX"
"511","oa_7","18_expected","Orchester","expected","j","j",1,1221,3,2,"XXXX"
"512","oa_7","37_unseen","Smaragd",NA,"n","j",0,5372,3,2,"XXXX"
"513","oa_7","45_unexpected","Antwort","unexpected","j","j",1,2503,3,2,"XXXX"
"514","oa_7","10_unseen","Zwerge",NA,"n","j",0,987,3,2,"XXXX"
"515","oa_7","17_unseen","Brüder",NA,"n","j",0,1580,3,2,"XXXX"
"516","oa_7","7_unexpected","Wagen","unexpected","j","j",1,1101,3,2,"XXXX"
"517","oa_7","37_unexpected","Waffe","unexpected","j","n",0,2608,3,2,"XXXX"
"518","oa_7","40_unseen","Türke",NA,"n","n",1,1440,3,2,"XXXX"
"519","oa_7","29_unseen","Materie",NA,"n","n",1,4399,3,2,"XXXX"
"520","oa_7","49_expected","Paket","expected","j","j",1,1000,3,2,"XXXX"
"521","oa_7","17_unexpected","Herausforderung","unexpected","j","j",1,1175,3,2,"XXXX"
"522","oa_7","25_unexpected","Wappen","unexpected","j","j",1,4360,3,2,"XXXX"
"523","oa_7","43_unexpected","Gatter","unexpected","j","n",0,1179,3,2,"XXXX"
"524","oa_7","13_unseen","Frosch",NA,"n","n",1,1340,3,2,"XXXX"
"525","oa_7","3_unseen","Lippen",NA,"n","j",0,1375,3,2,"XXXX"
"526","oa_7","35_unexpected","Mund","unexpected","j","j",1,1000,3,2,"XXXX"
"527","oa_7","33_unseen","Weste",NA,"n","n",1,3368,3,2,"XXXX"
"528","oa_7","16_unseen","Antarktis",NA,"n","n",1,4138,3,2,"XXXX"
"529","oa_7","25_unseen","Einzelkind",NA,"n","j",0,1133,3,2,"XXXX"
"530","oa_7","28_unseen","Verschluss",NA,"n","j",0,1072,3,2,"XXXX"
"531","oa_7","31_unexpected","Watte","unexpected","j","n",0,3541,3,2,"XXXX"
"532","oa_7","19_unseen","Bombe",NA,"n","j",0,2064,3,2,"XXXX"
"533","oa_7","2_expected","Auto","expected","j","j",1,861,3,2,"XXXX"
"534","oa_7","12_unseen","Wunsch",NA,"n","j",0,1099,3,2,"XXXX"
"535","oa_7","36_expected","Sauna","expected","j","j",1,927,3,2,"XXXX"
"536","oa_7","16_expected","Schloss","expected","j","j",1,954,3,2,"XXXX"
"537","oa_7","10_expected","Band","expected","j","n",0,5259,3,2,"XXXX"
"538","oa_7","8_unseen","Schutt",NA,"n","n",1,1483,3,2,"XXXX"
"539","oa_7","24_unseen","Speisesaal",NA,"n","n",1,2847,3,2,"XXXX"
"540","oa_7","1_unexpected","Schlafzimmer","unexpected","j","j",1,926,3,2,"XXXX"
"541","oa_7","27_unseen","Bildschirm",NA,"n","j",0,697,3,2,"XXXX"
"542","oa_7","27_unexpected","Platte","unexpected","j","j",1,1405,3,2,"XXXX"
"543","oa_7","28_expected","Briefkasten","expected","j","n",0,2573,3,2,"XXXX"
"544","oa_7","20_unseen","Wüste",NA,"n","j",0,1862,3,2,"XXXX"
"545","oa_7","9_unseen","Sekunde",NA,"n","j",0,844,3,2,"XXXX"
"546","oa_7","24_expected","Wald","expected","j","j",1,755,3,2,"XXXX"
"547","oa_7","35_unseen","Mozart",NA,"n","n",1,996,3,2,"XXXX"
"548","oa_7","18_unseen","Pfadfinder",NA,"n","n",1,3205,3,2,"XXXX"
"549","oa_7","15_unexpected","Untermieterin","unexpected","j","j",1,1269,3,2,"XXXX"
"550","oa_7","30_expected","Polizei","expected","j","j",1,1019,3,2,"XXXX"
"551","oa_7","34_unseen","Hypnose",NA,"n","n",1,1274,3,2,"XXXX"
"552","oa_7","22_expected","Kühlschrank","expected","j","j",1,1894,3,2,"XXXX"
"553","oa_7","22_unseen","Pfanne",NA,"n","j",0,1195,3,2,"XXXX"
"554","oa_7","38_unseen","Felsen",NA,"n","n",1,2915,3,2,"XXXX"
"555","oa_7","21_unexpected","Offizier","unexpected","j","n",0,1063,3,2,"XXXX"
"556","oa_7","31_unseen","Salami",NA,"n","n",1,1180,3,2,"XXXX"
"557","oa_7","26_unseen","Märchen",NA,"n","j",0,773,3,2,"XXXX"
"558","oa_7","47_expected","Tür","expected","j","j",1,942,3,2,"XXXX"
"559","oa_7","41_unexpected","Bock","unexpected","j","n",0,5096,3,2,"XXXX"
"560","oa_7","21_unseen","Zigaretten",NA,"n","n",1,6149,3,2,"XXXX"
"561","oa_8","13_unexpected","Couch","unexpected","j","j",1,1758,2,2,""
"562","oa_8","14_unseen","Fahrzeuge",NA,"n","j",0,3104,2,2,""
"563","oa_8","5_unexpected","Grundstück","unexpected","j","j",1,7356,2,2,""
"564","oa_8","7_unseen","Zeichnung",NA,"n","n",1,2336,2,2,""
"565","oa_8","48_unexpected","Dachboden","unexpected","j","n",0,4563,2,2,""
"566","oa_8","11_unseen","Zuneigung",NA,"n","n",1,5109,2,2,""
"567","oa_8","19_unexpected","Klappe","unexpected","j","n",0,3995,2,2,""
"568","oa_8","4_unseen","Unterricht",NA,"n","j",0,1660,2,2,""
"569","oa_8","42_expected","Boden","expected","j","j",1,2498,2,2,""
"570","oa_8","36_unseen","Schande",NA,"n","n",1,2405,2,2,""
"571","oa_8","40_expected","Affen","expected","j","j",1,1021,2,2,""
"572","oa_8","6_unseen","Gipfel",NA,"n","j",0,8157,2,2,""
"573","oa_8","39_unexpected","Hospital","unexpected","j","j",1,2425,2,2,""
"574","oa_8","3_unexpected","Haus","unexpected","j","j",1,1672,2,2,""
"575","oa_8","30_unseen","Toaster",NA,"n","n",1,1846,2,2,""
"576","oa_8","20_expected","Fahrrad","expected","j","j",1,1372,2,2,""
"577","oa_8","32_unseen","Buchstaben",NA,"n","j",0,2014,2,2,""
"578","oa_8","4_expected","Zähne","expected","j","j",1,1206,2,2,""
"579","oa_8","5_unseen","Kopfgeld",NA,"n","n",1,1637,2,2,""
"580","oa_8","9_unexpected","Menge","unexpected","j","n",0,7940,2,2,""
"581","oa_8","8_expected","Berge","expected","j","j",1,753,2,2,""
"582","oa_8","15_unseen","Künstlerin",NA,"n","n",1,2267,2,2,""
"583","oa_8","6_expected","Tisch","expected","j","j",1,1056,2,2,""
"584","oa_8","34_expected","Bäckerei","expected","j","j",1,1038,2,2,""
"585","oa_8","1_unseen","Käsekuchen",NA,"n","n",1,1371,2,2,""
"586","oa_8","38_expected","Licht","expected","j","j",1,4140,2,2,""
"587","oa_8","23_unseen","Röhre",NA,"n","n",1,2024,2,2,""
"588","oa_8","14_expected","Ferien","expected","j","j",1,1303,2,2,""
"589","oa_8","39_unseen","Makler",NA,"n","n",1,987,2,2,""
"590","oa_8","2_unseen","Technik",NA,"n","n",1,3524,2,2,""
"591","oa_8","18_expected","Orchester","expected","j","j",1,3272,2,2,""
"592","oa_8","37_unseen","Smaragd",NA,"n","n",1,1149,2,2,""
"593","oa_8","45_unexpected","Antwort","unexpected","j","n",0,3039,2,2,""
"594","oa_8","10_unseen","Zwerge",NA,"n","n",1,5078,2,2,""
"595","oa_8","17_unseen","Brüder",NA,"n","n",1,2741,2,2,""
"596","oa_8","7_unexpected","Wagen","unexpected","j","j",1,1040,2,2,""
"597","oa_8","37_unexpected","Waffe","unexpected","j","n",0,9102,2,2,""
"598","oa_8","40_unseen","Türke",NA,"n","n",1,1101,2,2,""
"599","oa_8","29_unseen","Materie",NA,"n","n",1,1224,2,2,""
"600","oa_8","49_expected","Paket","expected","j","j",1,903,2,2,""
"601","oa_8","17_unexpected","Herausforderung","unexpected","j","n",0,1090,2,2,""
"602","oa_8","25_unexpected","Wappen","unexpected","j","n",0,1311,2,2,""
"603","oa_8","43_unexpected","Gatter","unexpected","j","n",0,2219,2,2,""
"604","oa_8","13_unseen","Frosch",NA,"n","n",1,1946,2,2,""
"605","oa_8","3_unseen","Lippen",NA,"n","j",0,3973,2,2,""
"606","oa_8","35_unexpected","Mund","unexpected","j","j",1,2487,2,2,""
"607","oa_8","33_unseen","Weste",NA,"n","n",1,1220,2,2,""
"608","oa_8","16_unseen","Antarktis",NA,"n","n",1,2547,2,2,""
"609","oa_8","25_unseen","Einzelkind",NA,"n","n",1,957,2,2,""
"610","oa_8","28_unseen","Verschluss",NA,"n","n",1,3727,2,2,""
"611","oa_8","31_unexpected","Watte","unexpected","j","j",1,1307,2,2,""
"612","oa_8","19_unseen","Bombe",NA,"n","n",1,1263,2,2,""
"613","oa_8","2_expected","Auto","expected","j","j",1,1061,2,2,""
"614","oa_8","12_unseen","Wunsch",NA,"n","j",0,2147,2,2,""
"615","oa_8","36_expected","Sauna","expected","j","n",0,2837,2,2,""
"616","oa_8","16_expected","Schloss","expected","j","j",1,4195,2,2,""
"617","oa_8","10_expected","Band","expected","j","n",0,2165,2,2,""
"618","oa_8","8_unseen","Schutt",NA,"n","n",1,1990,2,2,""
"619","oa_8","24_unseen","Speisesaal",NA,"n","j",0,2319,2,2,""
"620","oa_8","1_unexpected","Schlafzimmer","unexpected","j","j",1,883,2,2,""
"621","oa_8","27_unseen","Bildschirm",NA,"n","n",1,7879,2,2,""
"622","oa_8","27_unexpected","Platte","unexpected","j","n",0,4806,2,2,""
"623","oa_8","28_expected","Briefkasten","expected","j","n",0,1271,2,2,""
"624","oa_8","20_unseen","Wüste",NA,"n","n",1,6076,2,2,""
"625","oa_8","9_unseen","Sekunde",NA,"n","n",1,2259,2,2,""
"626","oa_8","24_expected","Wald","expected","j","j",1,857,2,2,""
"627","oa_8","35_unseen","Mozart",NA,"n","n",1,4471,2,2,""
"628","oa_8","18_unseen","Pfadfinder",NA,"n","n",1,1677,2,2,""
"629","oa_8","15_unexpected","Untermieterin","unexpected","j","j",1,1345,2,2,""
"630","oa_8","30_expected","Polizei","expected","j","j",1,1092,2,2,""
"631","oa_8","34_unseen","Hypnose",NA,"n","n",1,1456,2,2,""
"632","oa_8","22_expected","Kühlschrank","expected","j","j",1,782,2,2,""
"633","oa_8","22_unseen","Pfanne",NA,"n","j",0,5303,2,2,""
"634","oa_8","38_unseen","Felsen",NA,"n","n",1,1220,2,2,""
"635","oa_8","21_unexpected","Offizier","unexpected","j","j",1,5467,2,2,""
"636","oa_8","31_unseen","Salami",NA,"n","n",1,1818,2,2,""
"637","oa_8","26_unseen","Märchen",NA,"n","j",0,7257,2,2,""
"638","oa_8","47_expected","Tür","expected","j","n",0,6257,2,2,""
"639","oa_8","41_unexpected","Bock","unexpected","j","n",0,4657,2,2,""
"640","oa_8","21_unseen","Zigaretten",NA,"n","n",1,1192,2,2,""
"641","oa_9","13_unexpected","Couch","unexpected","j","j",1,1977,4,2,""
"642","oa_9","14_unseen","Fahrzeuge",NA,"n","j",0,1099,4,2,""
"643","oa_9","5_unexpected","Grundstück","unexpected","j","j",1,879,4,2,""
"644","oa_9","7_unseen","Zeichnung",NA,"n","n",1,1748,4,2,""
"645","oa_9","48_unexpected","Dachboden","unexpected","j","n",0,1742,4,2,""
"646","oa_9","11_unseen","Zuneigung",NA,"n","n",1,1448,4,2,""
"647","oa_9","19_unexpected","Klappe","unexpected","j","n",0,2142,4,2,""
"648","oa_9","4_unseen","Unterricht",NA,"n","j",0,1833,4,2,""
"649","oa_9","42_expected","Boden","expected","j","j",1,1856,4,2,""
"650","oa_9","36_unseen","Schande",NA,"n","n",1,1309,4,2,""
"651","oa_9","40_expected","Affen","expected","j","j",1,1193,4,2,""
"652","oa_9","6_unseen","Gipfel",NA,"n","n",1,2969,4,2,""
"653","oa_9","39_unexpected","Hospital","unexpected","j","j",1,1395,4,2,""
"654","oa_9","3_unexpected","Haus","unexpected","j","j",1,827,4,2,""
"655","oa_9","30_unseen","Toaster",NA,"n","n",1,1258,4,2,""
"656","oa_9","20_expected","Fahrrad","expected","j","j",1,1240,4,2,""
"657","oa_9","32_unseen","Buchstaben",NA,"n","n",1,1903,4,2,""
"658","oa_9","4_expected","Zähne","expected","j","n",0,1291,4,2,""
"659","oa_9","5_unseen","Kopfgeld",NA,"n","n",1,3127,4,2,""
"660","oa_9","9_unexpected","Menge","unexpected","j","n",0,2475,4,2,""
"661","oa_9","8_expected","Berge","expected","j","j",1,1457,4,2,""
"662","oa_9","15_unseen","Künstlerin",NA,"n","j",0,926,4,2,""
"663","oa_9","6_expected","Tisch","expected","j","j",1,1274,4,2,""
"664","oa_9","34_expected","Bäckerei","expected","j","j",1,1031,4,2,""
"665","oa_9","1_unseen","Käsekuchen",NA,"n","n",1,1630,4,2,""
"666","oa_9","38_expected","Licht","expected","j","j",1,2205,4,2,""
"667","oa_9","23_unseen","Röhre",NA,"n","n",1,1245,4,2,""
"668","oa_9","14_expected","Ferien","expected","j","j",1,1451,4,2,""
"669","oa_9","39_unseen","Makler",NA,"n","j",0,2289,4,2,""
"670","oa_9","2_unseen","Technik",NA,"n","n",1,1149,4,2,""
"671","oa_9","18_expected","Orchester","expected","j","j",1,1383,4,2,""
"672","oa_9","37_unseen","Smaragd",NA,"n","n",1,1368,4,2,""
"673","oa_9","45_unexpected","Antwort","unexpected","j","j",1,1761,4,2,""
"674","oa_9","10_unseen","Zwerge",NA,"n","n",1,1075,4,2,""
"675","oa_9","17_unseen","Brüder",NA,"n","n",1,1664,4,2,""
"676","oa_9","7_unexpected","Wagen","unexpected","j","j",1,1357,4,2,""
"677","oa_9","37_unexpected","Waffe","unexpected","j","j",1,871,4,2,""
"678","oa_9","40_unseen","Türke",NA,"n","n",1,1276,4,2,""
"679","oa_9","29_unseen","Materie",NA,"n","n",1,1177,4,2,""
"680","oa_9","49_expected","Paket","expected","j","j",1,1491,4,2,""
"681","oa_9","17_unexpected","Herausforderung","unexpected","j","n",0,1175,4,2,""
"682","oa_9","25_unexpected","Wappen","unexpected","j","j",1,1432,4,2,""
"683","oa_9","43_unexpected","Gatter","unexpected","j","j",1,1823,4,2,""
"684","oa_9","13_unseen","Frosch",NA,"n","n",1,1062,4,2,""
"685","oa_9","3_unseen","Lippen",NA,"n","n",1,1756,4,2,""
"686","oa_9","35_unexpected","Mund","unexpected","j","n",0,2046,4,2,""
"687","oa_9","33_unseen","Weste",NA,"n","n",1,1188,4,2,""
"688","oa_9","16_unseen","Antarktis",NA,"n","n",1,812,4,2,""
"689","oa_9","25_unseen","Einzelkind",NA,"n","n",1,844,4,2,""
"690","oa_9","28_unseen","Verschluss",NA,"n","n",1,850,4,2,""
"691","oa_9","31_unexpected","Watte","unexpected","j","j",1,1408,4,2,""
"692","oa_9","19_unseen","Bombe",NA,"n","n",1,1032,4,2,""
"693","oa_9","2_expected","Auto","expected","j","j",1,2118,4,2,""
"694","oa_9","12_unseen","Wunsch",NA,"n","n",1,1210,4,2,""
"695","oa_9","36_expected","Sauna","expected","j","n",0,985,4,2,""
"696","oa_9","16_expected","Schloss","expected","j","n",0,1010,4,2,""
"697","oa_9","10_expected","Band","expected","j","j",1,1714,4,2,""
"698","oa_9","8_unseen","Schutt",NA,"n","n",1,934,4,2,""
"699","oa_9","24_unseen","Speisesaal",NA,"n","n",1,824,4,2,""
"700","oa_9","1_unexpected","Schlafzimmer","unexpected","j","j",1,1655,4,2,""
"701","oa_9","27_unseen","Bildschirm",NA,"n","n",1,1005,4,2,""
"702","oa_9","27_unexpected","Platte","unexpected","j","n",0,2077,4,2,""
"703","oa_9","28_expected","Briefkasten","expected","j","n",0,3506,4,2,""
"704","oa_9","20_unseen","Wüste",NA,"n","n",1,1751,4,2,""
"705","oa_9","9_unseen","Sekunde",NA,"n","n",1,1065,4,2,""
"706","oa_9","24_expected","Wald","expected","j","j",1,1318,4,2,""
"707","oa_9","35_unseen","Mozart",NA,"n","n",1,1096,4,2,""
"708","oa_9","18_unseen","Pfadfinder",NA,"n","n",1,860,4,2,""
"709","oa_9","15_unexpected","Untermieterin","unexpected","j","n",0,834,4,2,""
"710","oa_9","30_expected","Polizei","expected","j","j",1,2736,4,2,""
"711","oa_9","34_unseen","Hypnose",NA,"n","n",1,1059,4,2,""
"712","oa_9","22_expected","Kühlschrank","expected","j","j",1,1297,4,2,""
"713","oa_9","22_unseen","Pfanne",NA,"n","j",0,645,4,2,""
"714","oa_9","38_unseen","Felsen",NA,"n","n",1,1011,4,2,""
"715","oa_9","21_unexpected","Offizier","unexpected","j","n",0,923,4,2,""
"716","oa_9","31_unseen","Salami",NA,"n","n",1,726,4,2,""
"717","oa_9","26_unseen","Märchen",NA,"n","n",1,2209,4,2,""
"718","oa_9","47_expected","Tür","expected","j","j",1,1585,4,2,""
"719","oa_9","41_unexpected","Bock","unexpected","j","n",0,898,4,2,""
"720","oa_9","21_unseen","Zigaretten",NA,"n","n",1,1182,4,2,""
"721","oa_10","11_expected","Müll","expected","j","j",1,3157,1,1,""
"722","oa_10","40_unexpected","Vogel","unexpected","j","n",0,3472,1,1,""
"723","oa_10","23_expected","Zug","expected","j","n",0,1350,1,1,""
"724","oa_10","38_unseen","Felsen",NA,"n","n",1,1312,1,1,""
"725","oa_10","9_unseen","Sekunde",NA,"n","n",1,1307,1,1,""
"726","oa_10","12_unseen","Wunsch",NA,"n","n",1,1679,1,1,""
"727","oa_10","33_unseen","Weste",NA,"n","n",1,1101,1,1,""
"728","oa_10","30_unexpected","Geschäft","unexpected","j","j",1,1832,1,1,""
"729","oa_10","3_expected","Tür","expected","j","j",1,2647,1,1,""
"730","oa_10","25_expected","Flagge","expected","j","j",1,2213,1,1,""
"731","oa_10","43_expected","Stall","expected","j","j",1,1430,1,1,""
"732","oa_10","35_unseen","Mozart",NA,"n","n",1,1357,1,1,""
"733","oa_10","12_unexpected","Bart","unexpected","j","n",0,2559,1,1,""
"734","oa_10","17_unseen","Brüder",NA,"n","n",1,2137,1,1,""
"735","oa_10","40_unseen","Türke",NA,"n","n",1,1012,1,1,""
"736","oa_10","1_unseen","Käsekuchen",NA,"n","n",1,1683,1,1,""
"737","oa_10","49_unexpected","Umschlag","unexpected","j","j",1,1847,1,1,""
"738","oa_10","32_unseen","Buchstaben",NA,"n","n",1,2389,1,1,""
"739","oa_10","25_unseen","Einzelkind",NA,"n","n",1,1078,1,1,""
"740","oa_10","31_unseen","Salami",NA,"n","n",1,867,1,1,""
"741","oa_10","22_unexpected","Badewanne","unexpected","j","j",1,1608,1,1,""
"742","oa_10","23_unseen","Röhre",NA,"n","n",1,1208,1,1,""
"743","oa_10","24_unexpected","Gegend","unexpected","j","n",0,888,1,1,""
"744","oa_10","14_unexpected","Weihnachtsmann","unexpected","j","j",1,2148,1,1,""
"745","oa_10","4_unseen","Unterricht",NA,"n","n",1,1862,1,1,""
"746","oa_10","34_unexpected","Hotelzimmer","unexpected","j","j",1,1220,1,1,""
"747","oa_10","17_expected","Rätsel","expected","j","j",1,2316,1,1,""
"748","oa_10","10_unexpected","Rose","unexpected","j","n",0,1415,1,1,""
"749","oa_10","14_unseen","Fahrzeuge",NA,"n","n",1,2110,1,1,""
"750","oa_10","44_unexpected","Vorhang","unexpected","j","j",1,2098,1,1,""
"751","oa_10","20_unseen","Wüste",NA,"n","j",0,1599,1,1,""
"752","oa_10","4_unexpected","Bauch","unexpected","j","j",1,1431,1,1,""
"753","oa_10","13_unseen","Frosch",NA,"n","n",1,1198,1,1,""
"754","oa_10","26_unexpected","Ratte","unexpected","j","j",1,1254,1,1,""
"755","oa_10","38_unexpected","Computer","unexpected","j","j",1,2003,1,1,""
"756","oa_10","31_expected","Teig","expected","j","j",1,1114,1,1,""
"757","oa_10","47_unexpected","Fensterrahmen","unexpected","j","j",1,1294,1,1,""
"758","oa_10","10_unseen","Zwerge",NA,"n","n",1,1570,1,1,""
"759","oa_10","8_unexpected","Osten","unexpected","j","n",0,1059,1,1,""
"760","oa_10","9_expected","Ziel","expected","j","n",0,2689,1,1,""
"761","oa_10","5_unseen","Kopfgeld",NA,"n","n",1,1110,1,1,""
"762","oa_10","15_unseen","Künstlerin",NA,"n","n",1,1242,1,1,""
"763","oa_10","39_expected","Apotheke","expected","j","j",1,1512,1,1,""
"764","oa_10","35_expected","Nase","expected","j","n",0,1020,1,1,""
"765","oa_10","27_unseen","Bildschirm",NA,"n","j",0,2075,1,1,""
"766","oa_10","7_expected","Schiff","expected","j","j",1,1072,1,1,""
"767","oa_10","26_unseen","Märchen",NA,"n","j",0,1109,1,1,""
"768","oa_10","19_unseen","Bombe",NA,"n","n",1,1161,1,1,""
"769","oa_10","27_expected","Herd","expected","j","n",0,1995,1,1,""
"770","oa_10","16_unseen","Antarktis",NA,"n","n",1,1155,1,1,""
"771","oa_10","29_expected","Geheimnis","expected","j","j",1,2381,1,1,""
"772","oa_10","7_unseen","Zeichnung",NA,"n","n",1,1294,1,1,""
"773","oa_10","6_unseen","Gipfel",NA,"n","n",1,1075,1,1,""
"774","oa_10","30_unseen","Toaster",NA,"n","n",1,1056,1,1,""
"775","oa_10","8_unseen","Schutt",NA,"n","n",1,2804,1,1,""
"776","oa_10","36_unexpected","Salon","unexpected","j","j",1,1477,1,1,""
"777","oa_10","11_unseen","Zuneigung",NA,"n","n",1,1402,1,1,""
"778","oa_10","16_unexpected","Bus","unexpected","j","j",1,2362,1,1,""
"779","oa_10","19_expected","Fenster","expected","j","j",1,1244,1,1,""
"780","oa_10","39_unseen","Makler",NA,"n","n",1,947,1,1,""
"781","oa_10","41_expected","Kühe","expected","j","j",1,1277,1,1,""
"782","oa_10","2_unexpected","Gruppe","unexpected","j","j",1,2650,1,1,""
"783","oa_10","42_unexpected","Decke","unexpected","j","j",1,1289,1,1,""
"784","oa_10","21_expected","Wunde","expected","j","j",1,1573,1,1,""
"785","oa_10","37_unseen","Smaragd",NA,"n","n",1,942,1,1,""
"786","oa_10","45_expected","Ja-Wort","expected","j","n",0,1161,1,1,""
"787","oa_10","28_unseen","Verschluss",NA,"n","n",1,1658,1,1,""
"788","oa_10","21_unseen","Zigaretten",NA,"n","n",1,2072,1,1,""
"789","oa_10","3_unseen","Lippen",NA,"n","n",1,1078,1,1,""
"790","oa_10","36_unseen","Schande",NA,"n","n",1,1651,1,1,""
"791","oa_10","20_unexpected","Ausrüstung","unexpected","j","n",0,2017,1,1,""
"792","oa_10","15_expected","Schlüsseldienst","expected","j","j",1,1232,1,1,""
"793","oa_10","24_unseen","Speisesaal",NA,"n","j",0,1975,1,1,""
"794","oa_10","22_unseen","Pfanne",NA,"n","n",1,1847,1,1,""
"795","oa_10","29_unseen","Materie",NA,"n","n",1,1069,1,1,""
"796","oa_10","18_unseen","Pfadfinder",NA,"n","n",1,1594,1,1,""
"797","oa_10","33_expected","Sonne","expected","j","j",1,2179,1,1,""
"798","oa_10","2_unseen","Technik",NA,"n","n",1,1436,1,1,""
"799","oa_10","48_expected","Wand","expected","j","j",1,1203,1,1,""
"800","oa_10","34_unseen","Hypnose",NA,"n","n",1,1003,1,1,""
"801","oa_11","13_unexpected","Couch","unexpected","j","n",0,2082,3,2,"XXXX"
"802","oa_11","14_unseen","Fahrzeuge",NA,"n","n",1,1455,3,2,"XXXX"
"803","oa_11","5_unexpected","Grundstück","unexpected","j","n",0,1412,3,2,"XXXX"
"804","oa_11","7_unseen","Zeichnung",NA,"n","n",1,1347,3,2,"XXXX"
"805","oa_11","48_unexpected","Dachboden","unexpected","j","n",0,1357,3,2,"XXXX"
"806","oa_11","11_unseen","Zuneigung",NA,"n","n",1,1647,3,2,"XXXX"
"807","oa_11","19_unexpected","Klappe","unexpected","j","n",0,1237,3,2,"XXXX"
"808","oa_11","4_unseen","Unterricht",NA,"n","j",0,2291,3,2,"XXXX"
"809","oa_11","42_expected","Boden","expected","j","j",1,1104,3,2,"XXXX"
"810","oa_11","36_unseen","Schande",NA,"n","n",1,2428,3,2,"XXXX"
"811","oa_11","40_expected","Affen","expected","j","j",1,1548,3,2,"XXXX"
"812","oa_11","6_unseen","Gipfel",NA,"n","n",1,1374,3,2,"XXXX"
"813","oa_11","39_unexpected","Hospital","unexpected","j","n",0,863,3,2,"XXXX"
"814","oa_11","3_unexpected","Haus","unexpected","j","j",1,1452,3,2,"XXXX"
"815","oa_11","30_unseen","Toaster",NA,"n","n",1,1290,3,2,"XXXX"
"816","oa_11","20_expected","Fahrrad","expected","j","n",0,1455,3,2,"XXXX"
"817","oa_11","32_unseen","Buchstaben",NA,"n","j",0,1421,3,2,"XXXX"
"818","oa_11","4_expected","Zähne","expected","j","j",1,1412,3,2,"XXXX"
"819","oa_11","5_unseen","Kopfgeld",NA,"n","n",1,892,3,2,"XXXX"
"820","oa_11","9_unexpected","Menge","unexpected","j","n",0,1136,3,2,"XXXX"
"821","oa_11","8_expected","Berge","expected","j","n",0,1139,3,2,"XXXX"
"822","oa_11","15_unseen","Künstlerin",NA,"n","j",0,2317,3,2,"XXXX"
"823","oa_11","6_expected","Tisch","expected","j","n",0,1248,3,2,"XXXX"
"824","oa_11","34_expected","Bäckerei","expected","j","j",1,1677,3,2,"XXXX"
"825","oa_11","1_unseen","Käsekuchen",NA,"n","n",1,1635,3,2,"XXXX"
"826","oa_11","38_expected","Licht","expected","j","j",1,1561,3,2,"XXXX"
"827","oa_11","23_unseen","Röhre",NA,"n","n",1,1291,3,2,"XXXX"
"828","oa_11","14_expected","Ferien","expected","j","j",1,1528,3,2,"XXXX"
"829","oa_11","39_unseen","Makler",NA,"n","n",1,1459,3,2,"XXXX"
"830","oa_11","2_unseen","Technik",NA,"n","n",1,969,3,2,"XXXX"
"831","oa_11","18_expected","Orchester","expected","j","n",0,882,3,2,"XXXX"
"832","oa_11","37_unseen","Smaragd",NA,"n","n",1,822,3,2,"XXXX"
"833","oa_11","45_unexpected","Antwort","unexpected","j","j",1,1709,3,2,"XXXX"
"834","oa_11","10_unseen","Zwerge",NA,"n","j",0,1489,3,2,"XXXX"
"835","oa_11","17_unseen","Brüder",NA,"n","n",1,878,3,2,"XXXX"
"836","oa_11","7_unexpected","Wagen","unexpected","j","j",1,1387,3,2,"XXXX"
"837","oa_11","37_unexpected","Waffe","unexpected","j","n",0,884,3,2,"XXXX"
"838","oa_11","40_unseen","Türke",NA,"n","n",1,800,3,2,"XXXX"
"839","oa_11","29_unseen","Materie",NA,"n","n",1,816,3,2,"XXXX"
"840","oa_11","49_expected","Paket","expected","j","j",1,1543,3,2,"XXXX"
"841","oa_11","17_unexpected","Herausforderung","unexpected","j","n",0,945,3,2,"XXXX"
"842","oa_11","25_unexpected","Wappen","unexpected","j","n",0,716,3,2,"XXXX"
"843","oa_11","43_unexpected","Gatter","unexpected","j","n",0,671,3,2,"XXXX"
"844","oa_11","13_unseen","Frosch",NA,"n","n",1,1890,3,2,"XXXX"
"845","oa_11","3_unseen","Lippen",NA,"n","n",1,711,3,2,"XXXX"
"846","oa_11","35_unexpected","Mund","unexpected","j","n",0,1155,3,2,"XXXX"
"847","oa_11","33_unseen","Weste",NA,"n","n",1,757,3,2,"XXXX"
"848","oa_11","16_unseen","Antarktis",NA,"n","n",1,894,3,2,"XXXX"
"849","oa_11","25_unseen","Einzelkind",NA,"n","n",1,1435,3,2,"XXXX"
"850","oa_11","28_unseen","Verschluss",NA,"n","n",1,921,3,2,"XXXX"
"851","oa_11","31_unexpected","Watte","unexpected","j","n",0,956,3,2,"XXXX"
"852","oa_11","19_unseen","Bombe",NA,"n","n",1,646,3,2,"XXXX"
"853","oa_11","2_expected","Auto","expected","j","n",0,1252,3,2,"XXXX"
"854","oa_11","12_unseen","Wunsch",NA,"n","j",0,1530,3,2,"XXXX"
"855","oa_11","36_expected","Sauna","expected","j","n",0,781,3,2,"XXXX"
"856","oa_11","16_expected","Schloss","expected","j","n",0,686,3,2,"XXXX"
"857","oa_11","10_expected","Band","expected","j","n",0,666,3,2,"XXXX"
"858","oa_11","8_unseen","Schutt",NA,"n","n",1,655,3,2,"XXXX"
"859","oa_11","24_unseen","Speisesaal",NA,"n","n",1,964,3,2,"XXXX"
"860","oa_11","1_unexpected","Schlafzimmer","unexpected","j","j",1,1541,3,2,"XXXX"
"861","oa_11","27_unseen","Bildschirm",NA,"n","n",1,792,3,2,"XXXX"
"862","oa_11","27_unexpected","Platte","unexpected","j","n",0,904,3,2,"XXXX"
"863","oa_11","28_expected","Briefkasten","expected","j","j",1,1676,3,2,"XXXX"
"864","oa_11","20_unseen","Wüste",NA,"n","n",1,745,3,2,"XXXX"
"865","oa_11","9_unseen","Sekunde",NA,"n","n",1,1140,3,2,"XXXX"
"866","oa_11","24_expected","Wald","expected","j","n",0,965,3,2,"XXXX"
"867","oa_11","35_unseen","Mozart",NA,"n","n",1,1102,3,2,"XXXX"
"868","oa_11","18_unseen","Pfadfinder",NA,"n","n",1,1354,3,2,"XXXX"
"869","oa_11","15_unexpected","Untermieterin","unexpected","j","n",0,700,3,2,"XXXX"
"870","oa_11","30_expected","Polizei","expected","j","n",0,719,3,2,"XXXX"
"871","oa_11","34_unseen","Hypnose",NA,"n","n",1,938,3,2,"XXXX"
"872","oa_11","22_expected","Kühlschrank","expected","j","n",0,949,3,2,"XXXX"
"873","oa_11","22_unseen","Pfanne",NA,"n","n",1,775,3,2,"XXXX"
"874","oa_11","38_unseen","Felsen",NA,"n","n",1,760,3,2,"XXXX"
"875","oa_11","21_unexpected","Offizier","unexpected","j","n",0,729,3,2,"XXXX"
"876","oa_11","31_unseen","Salami",NA,"n","n",1,748,3,2,"XXXX"
"877","oa_11","26_unseen","Märchen",NA,"n","j",0,1878,3,2,"XXXX"
"878","oa_11","47_expected","Tür","expected","j","j",1,1395,3,2,"XXXX"
"879","oa_11","41_unexpected","Bock","unexpected","j","n",0,1604,3,2,"XXXX"
"880","oa_11","21_unseen","Zigaretten",NA,"n","n",1,820,3,2,"XXXX"
"881","oa_12","13_unexpected","Couch","unexpected","j","j",1,2461,2,2,""
"882","oa_12","14_unseen","Fahrzeuge",NA,"n","j",0,2547,2,2,""
"883","oa_12","5_unexpected","Grundstück","unexpected","j","j",1,1606,2,2,""
"884","oa_12","7_unseen","Zeichnung",NA,"n","n",1,1702,2,2,""
"885","oa_12","48_unexpected","Dachboden","unexpected","j","j",1,1442,2,2,""
"886","oa_12","11_unseen","Zuneigung",NA,"n","n",1,2584,2,2,""
"887","oa_12","19_unexpected","Klappe","unexpected","j","n",0,1817,2,2,""
"888","oa_12","4_unseen","Unterricht",NA,"n","j",0,1761,2,2,""
"889","oa_12","42_expected","Boden","expected","j","j",1,1347,2,2,""
"890","oa_12","36_unseen","Schande",NA,"n","n",1,1485,2,2,""
"891","oa_12","40_expected","Affen","expected","j","j",1,1994,2,2,""
"892","oa_12","6_unseen","Gipfel",NA,"n","n",1,2226,2,2,""
"893","oa_12","39_unexpected","Hospital","unexpected","j","j",1,2386,2,2,""
"894","oa_12","3_unexpected","Haus","unexpected","j","j",1,1043,2,2,""
"895","oa_12","30_unseen","Toaster",NA,"n","n",1,2049,2,2,""
"896","oa_12","20_expected","Fahrrad","expected","j","j",1,1798,2,2,""
"897","oa_12","32_unseen","Buchstaben",NA,"n","n",1,2590,2,2,""
"898","oa_12","4_expected","Zähne","expected","j","j",1,1527,2,2,""
"899","oa_12","5_unseen","Kopfgeld",NA,"n","n",1,1514,2,2,""
"900","oa_12","9_unexpected","Menge","unexpected","j","j",1,1501,2,2,""
"901","oa_12","8_expected","Berge","expected","j","j",1,1233,2,2,""
"902","oa_12","15_unseen","Künstlerin",NA,"n","n",1,1368,2,2,""
"903","oa_12","6_expected","Tisch","expected","j","j",1,1297,2,2,""
"904","oa_12","34_expected","Bäckerei","expected","j","j",1,1037,2,2,""
"905","oa_12","1_unseen","Käsekuchen",NA,"n","n",1,1348,2,2,""
"906","oa_12","38_expected","Licht","expected","j","j",1,862,2,2,""
"907","oa_12","23_unseen","Röhre",NA,"n","j",0,1883,2,2,""
"908","oa_12","14_expected","Ferien","expected","j","j",1,1104,2,2,""
"909","oa_12","39_unseen","Makler",NA,"n","n",1,1564,2,2,""
"910","oa_12","2_unseen","Technik",NA,"n","n",1,2014,2,2,""
"911","oa_12","18_expected","Orchester","expected","j","j",1,1397,2,2,""
"912","oa_12","37_unseen","Smaragd",NA,"n","n",1,1406,2,2,""
"913","oa_12","45_unexpected","Antwort","unexpected","j","n",0,1957,2,2,""
"914","oa_12","10_unseen","Zwerge",NA,"n","n",1,2103,2,2,""
"915","oa_12","17_unseen","Brüder",NA,"n","n",1,1916,2,2,""
"916","oa_12","7_unexpected","Wagen","unexpected","j","j",1,879,2,2,""
"917","oa_12","37_unexpected","Waffe","unexpected","j","n",0,3612,2,2,""
"918","oa_12","40_unseen","Türke",NA,"n","n",1,1652,2,2,""
"919","oa_12","29_unseen","Materie",NA,"n","n",1,1186,2,2,""
"920","oa_12","49_expected","Paket","expected","j","j",1,939,2,2,""
"921","oa_12","17_unexpected","Herausforderung","unexpected","j","j",1,1629,2,2,""
"922","oa_12","25_unexpected","Wappen","unexpected","j","j",1,1116,2,2,""
"923","oa_12","43_unexpected","Gatter","unexpected","j","j",1,1656,2,2,""
"924","oa_12","13_unseen","Frosch",NA,"n","n",1,1694,2,2,""
"925","oa_12","3_unseen","Lippen",NA,"n","j",0,1786,2,2,""
"926","oa_12","35_unexpected","Mund","unexpected","j","j",1,851,2,2,""
"927","oa_12","33_unseen","Weste",NA,"n","j",0,1584,2,2,""
"928","oa_12","16_unseen","Antarktis",NA,"n","n",1,1465,2,2,""
"929","oa_12","25_unseen","Einzelkind",NA,"n","n",1,1534,2,2,""
"930","oa_12","28_unseen","Verschluss",NA,"n","n",1,1425,2,2,""
"931","oa_12","31_unexpected","Watte","unexpected","j","j",1,1728,2,2,""
"932","oa_12","19_unseen","Bombe",NA,"n","n",1,1162,2,2,""
"933","oa_12","2_expected","Auto","expected","j","j",1,1269,2,2,""
"934","oa_12","12_unseen","Wunsch",NA,"n","n",1,1450,2,2,""
"935","oa_12","36_expected","Sauna","expected","j","j",1,1471,2,2,""
"936","oa_12","16_expected","Schloss","expected","j","j",1,900,2,2,""
"937","oa_12","10_expected","Band","expected","j","n",0,1808,2,2,""
"938","oa_12","8_unseen","Schutt",NA,"n","n",1,1872,2,2,""
"939","oa_12","24_unseen","Speisesaal",NA,"n","j",0,1597,2,2,""
"940","oa_12","1_unexpected","Schlafzimmer","unexpected","j","j",1,1477,2,2,""
"941","oa_12","27_unseen","Bildschirm",NA,"n","n",1,1450,2,2,""
"942","oa_12","27_unexpected","Platte","unexpected","j","n",0,1920,2,2,""
"943","oa_12","28_expected","Briefkasten","expected","j","j",1,1260,2,2,""
"944","oa_12","20_unseen","Wüste",NA,"n","n",1,1537,2,2,""
"945","oa_12","9_unseen","Sekunde",NA,"n","n",1,972,2,2,""
"946","oa_12","24_expected","Wald","expected","j","j",1,1373,2,2,""
"947","oa_12","35_unseen","Mozart",NA,"n","n",1,1966,2,2,""
"948","oa_12","18_unseen","Pfadfinder",NA,"n","n",1,1456,2,2,""
"949","oa_12","15_unexpected","Untermieterin","unexpected","j","j",1,2229,2,2,""
"950","oa_12","30_expected","Polizei","expected","j","j",1,997,2,2,""
"951","oa_12","34_unseen","Hypnose",NA,"n","n",1,1589,2,2,""
"952","oa_12","22_expected","Kühlschrank","expected","j","j",1,1166,2,2,""
"953","oa_12","22_unseen","Pfanne",NA,"n","j",0,903,2,2,""
"954","oa_12","38_unseen","Felsen",NA,"n","n",1,1819,2,2,""
"955","oa_12","21_unexpected","Offizier","unexpected","j","j",1,1442,2,2,""
"956","oa_12","31_unseen","Salami",NA,"n","n",1,1336,2,2,""
"957","oa_12","26_unseen","Märchen",NA,"n","j",0,1291,2,2,""
"958","oa_12","47_expected","Tür","expected","j","j",1,975,2,2,""
"959","oa_12","41_unexpected","Bock","unexpected","j","j",1,920,2,2,""
"960","oa_12","21_unseen","Zigaretten",NA,"n","n",1,1684,2,2,""
"961","oa_13","13_unexpected","Couch","unexpected","j","n",0,95732,4,2,""
"962","oa_13","14_unseen","Fahrzeuge",NA,"n","n",1,6502,4,2,""
"963","oa_13","5_unexpected","Grundstück","unexpected","j","n",0,5764,4,2,""
"964","oa_13","7_unseen","Zeichnung",NA,"n","n",1,1942,4,2,""
"965","oa_13","48_unexpected","Dachboden","unexpected","j","n",0,3137,4,2,""
"966","oa_13","11_unseen","Zuneigung",NA,"n","n",1,7364,4,2,""
"967","oa_13","19_unexpected","Klappe","unexpected","j","n",0,11328,4,2,""
"968","oa_13","4_unseen","Unterricht",NA,"n","j",0,1909,4,2,""
"969","oa_13","42_expected","Boden","expected","j","n",0,2994,4,2,""
"970","oa_13","36_unseen","Schande",NA,"n","n",1,1307,4,2,""
"971","oa_13","40_expected","Affen","expected","j","n",0,822,4,2,""
"972","oa_13","6_unseen","Gipfel",NA,"n","n",1,885,4,2,""
"973","oa_13","39_unexpected","Hospital","unexpected","j","n",0,1346,4,2,""
"974","oa_13","3_unexpected","Haus","unexpected","j","j",1,1596,4,2,""
"975","oa_13","30_unseen","Toaster",NA,"n","n",1,1061,4,2,""
"976","oa_13","20_expected","Fahrrad","expected","j","n",0,2051,4,2,""
"977","oa_13","32_unseen","Buchstaben",NA,"n","n",1,1233,4,2,""
"978","oa_13","4_expected","Zähne","expected","j","n",0,823,4,2,""
"979","oa_13","5_unseen","Kopfgeld",NA,"n","n",1,1230,4,2,""
"980","oa_13","9_unexpected","Menge","unexpected","j","n",0,2629,4,2,""
"981","oa_13","8_expected","Berge","expected","j","n",0,1261,4,2,""
"982","oa_13","15_unseen","Künstlerin",NA,"n","n",1,1411,4,2,""
"983","oa_13","6_expected","Tisch","expected","j","j",1,1322,4,2,""
"984","oa_13","34_expected","Bäckerei","expected","j","n",0,1150,4,2,""
"985","oa_13","1_unseen","Käsekuchen",NA,"n","n",1,1119,4,2,""
"986","oa_13","38_expected","Licht","expected","j","n",0,1530,4,2,""
"987","oa_13","23_unseen","Röhre",NA,"n","n",1,1206,4,2,""
"988","oa_13","14_expected","Ferien","expected","j","j",1,2397,4,2,""
"989","oa_13","39_unseen","Makler",NA,"n","n",1,1222,4,2,""
"990","oa_13","2_unseen","Technik",NA,"n","n",1,981,4,2,""
"991","oa_13","18_expected","Orchester","expected","j","n",0,918,4,2,""
"992","oa_13","37_unseen","Smaragd",NA,"n","n",1,1361,4,2,""
"993","oa_13","45_unexpected","Antwort","unexpected","j","j",1,1467,4,2,""
"994","oa_13","10_unseen","Zwerge",NA,"n","n",1,911,4,2,""
"995","oa_13","17_unseen","Brüder",NA,"n","n",1,995,4,2,""
"996","oa_13","7_unexpected","Wagen","unexpected","j","j",1,4163,4,2,""
"997","oa_13","37_unexpected","Waffe","unexpected","j","n",0,1501,4,2,""
"998","oa_13","40_unseen","Türke",NA,"n","n",1,969,4,2,""
"999","oa_13","29_unseen","Materie",NA,"n","n",1,1170,4,2,""
"1000","oa_13","49_expected","Paket","expected","j","n",0,1115,4,2,""
"1001","oa_13","17_unexpected","Herausforderung","unexpected","j","j",1,3046,4,2,""
"1002","oa_13","25_unexpected","Wappen","unexpected","j","n",0,1093,4,2,""
"1003","oa_13","43_unexpected","Gatter","unexpected","j","n",0,914,4,2,""
"1004","oa_13","13_unseen","Frosch",NA,"n","n",1,909,4,2,""
"1005","oa_13","3_unseen","Lippen",NA,"n","n",1,1017,4,2,""
"1006","oa_13","35_unexpected","Mund","unexpected","j","j",1,1432,4,2,""
"1007","oa_13","33_unseen","Weste",NA,"n","n",1,1031,4,2,""
"1008","oa_13","16_unseen","Antarktis",NA,"n","n",1,933,4,2,""
"1009","oa_13","25_unseen","Einzelkind",NA,"n","n",1,647,4,2,""
"1010","oa_13","28_unseen","Verschluss",NA,"n","n",1,1414,4,2,""
"1011","oa_13","31_unexpected","Watte","unexpected","j","n",0,973,4,2,""
"1012","oa_13","19_unseen","Bombe",NA,"n","n",1,511,4,2,""
"1013","oa_13","2_expected","Auto","expected","j","n",0,618,4,2,""
"1014","oa_13","12_unseen","Wunsch",NA,"n","n",1,2737,4,2,""
"1015","oa_13","36_expected","Sauna","expected","j","j",1,1724,4,2,""
"1016","oa_13","16_expected","Schloss","expected","j","n",0,1895,4,2,""
"1017","oa_13","10_expected","Band","expected","j","j",1,1572,4,2,""
"1018","oa_13","8_unseen","Schutt",NA,"n","n",1,957,4,2,""
"1019","oa_13","24_unseen","Speisesaal",NA,"n","n",1,1767,4,2,""
"1020","oa_13","1_unexpected","Schlafzimmer","unexpected","j","n",0,768,4,2,""
"1021","oa_13","27_unseen","Bildschirm",NA,"n","n",1,1249,4,2,""
"1022","oa_13","27_unexpected","Platte","unexpected","j","n",0,1271,4,2,""
"1023","oa_13","28_expected","Briefkasten","expected","j","n",0,908,4,2,""
"1024","oa_13","20_unseen","Wüste",NA,"n","n",1,1120,4,2,""
"1025","oa_13","9_unseen","Sekunde",NA,"n","n",1,2907,4,2,""
"1026","oa_13","24_expected","Wald","expected","j","n",0,1143,4,2,""
"1027","oa_13","35_unseen","Mozart",NA,"n","n",1,954,4,2,""
"1028","oa_13","18_unseen","Pfadfinder",NA,"n","n",1,707,4,2,""
"1029","oa_13","15_unexpected","Untermieterin","unexpected","j","n",0,1071,4,2,""
"1030","oa_13","30_expected","Polizei","expected","j","n",0,996,4,2,""
"1031","oa_13","34_unseen","Hypnose",NA,"n","n",1,932,4,2,""
"1032","oa_13","22_expected","Kühlschrank","expected","j","n",0,863,4,2,""
"1033","oa_13","22_unseen","Pfanne",NA,"n","n",1,964,4,2,""
"1034","oa_13","38_unseen","Felsen",NA,"n","n",1,702,4,2,""
"1035","oa_13","21_unexpected","Offizier","unexpected","j","n",0,762,4,2,""
"1036","oa_13","31_unseen","Salami",NA,"n","n",1,1218,4,2,""
"1037","oa_13","26_unseen","Märchen",NA,"n","j",0,1738,4,2,""
"1038","oa_13","47_expected","Tür","expected","j","j",1,1788,4,2,""
"1039","oa_13","41_unexpected","Bock","unexpected","j","j",1,3397,4,2,""
"1040","oa_13","21_unseen","Zigaretten",NA,"n","n",1,1685,4,2,""
"1041","oa_14","11_expected","Müll","expected","j","n",0,13325,1,1,""
"1042","oa_14","40_unexpected","Vogel","unexpected","j","n",0,7860,1,1,""
"1043","oa_14","23_expected","Zug","expected","j","n",0,2980,1,1,""
"1044","oa_14","38_unseen","Felsen",NA,"n","n",1,1942,1,1,""
"1045","oa_14","9_unseen","Sekunde",NA,"n","j",0,4649,1,1,""
"1046","oa_14","12_unseen","Wunsch",NA,"n","j",0,7591,1,1,""
"1047","oa_14","33_unseen","Weste",NA,"n","n",1,5946,1,1,""
"1048","oa_14","30_unexpected","Geschäft","unexpected","j","j",1,7477,1,1,""
"1049","oa_14","3_expected","Tür","expected","j","j",1,2988,1,1,""
"1050","oa_14","25_expected","Flagge","expected","j","n",0,2373,1,1,""
"1051","oa_14","43_expected","Stall","expected","j","n",0,1327,1,1,""
"1052","oa_14","35_unseen","Mozart",NA,"n","j",0,4874,1,1,""
"1053","oa_14","12_unexpected","Bart","unexpected","j","j",1,3065,1,1,""
"1054","oa_14","17_unseen","Brüder",NA,"n","n",1,3518,1,1,""
"1055","oa_14","40_unseen","Türke",NA,"n","n",1,2898,1,1,""
"1056","oa_14","1_unseen","Käsekuchen",NA,"n","n",1,1311,1,1,""
"1057","oa_14","49_unexpected","Umschlag","unexpected","j","j",1,3746,1,1,""
"1058","oa_14","32_unseen","Buchstaben",NA,"n","n",1,4358,1,1,""
"1059","oa_14","25_unseen","Einzelkind",NA,"n","n",1,1665,1,1,""
"1060","oa_14","31_unseen","Salami",NA,"n","n",1,2662,1,1,""
"1061","oa_14","22_unexpected","Badewanne","unexpected","j","n",0,1899,1,1,""
"1062","oa_14","23_unseen","Röhre",NA,"n","n",1,3895,1,1,""
"1063","oa_14","24_unexpected","Gegend","unexpected","j","n",0,6301,1,1,""
"1064","oa_14","14_unexpected","Weihnachtsmann","unexpected","j","j",1,4530,1,1,""
"1065","oa_14","4_unseen","Unterricht",NA,"n","j",0,3654,1,1,""
"1066","oa_14","34_unexpected","Hotelzimmer","unexpected","j","j",1,3645,1,1,""
"1067","oa_14","17_expected","Rätsel","expected","j","j",1,4948,1,1,""
"1068","oa_14","10_unexpected","Rose","unexpected","j","j",1,2943,1,1,""
"1069","oa_14","14_unseen","Fahrzeuge",NA,"n","n",1,3162,1,1,""
"1070","oa_14","44_unexpected","Vorhang","unexpected","j","j",1,3308,1,1,""
"1071","oa_14","20_unseen","Wüste",NA,"n","n",1,3753,1,1,""
"1072","oa_14","4_unexpected","Bauch","unexpected","j","j",1,1972,1,1,""
"1073","oa_14","13_unseen","Frosch",NA,"n","j",0,6405,1,1,""
"1074","oa_14","26_unexpected","Ratte","unexpected","j","n",0,3663,1,1,""
"1075","oa_14","38_unexpected","Computer","unexpected","j","j",1,3437,1,1,""
"1076","oa_14","31_expected","Teig","expected","j","n",0,2949,1,1,""
"1077","oa_14","47_unexpected","Fensterrahmen","unexpected","j","j",1,4502,1,1,""
"1078","oa_14","10_unseen","Zwerge",NA,"n","j",0,1691,1,1,""
"1079","oa_14","8_unexpected","Osten","unexpected","j","n",0,1871,1,1,""
"1080","oa_14","9_expected","Ziel","expected","j","j",1,1405,1,1,""
"1081","oa_14","5_unseen","Kopfgeld",NA,"n","n",1,2341,1,1,""
"1082","oa_14","15_unseen","Künstlerin",NA,"n","n",1,1648,1,1,""
"1083","oa_14","39_expected","Apotheke","expected","j","n",0,1646,1,1,""
"1084","oa_14","35_expected","Nase","expected","j","n",0,3436,1,1,""
"1085","oa_14","27_unseen","Bildschirm",NA,"n","j",0,1955,1,1,""
"1086","oa_14","7_expected","Schiff","expected","j","n",0,2693,1,1,""
"1087","oa_14","26_unseen","Märchen",NA,"n","n",1,2410,1,1,""
"1088","oa_14","19_unseen","Bombe",NA,"n","n",1,1379,1,1,""
"1089","oa_14","27_expected","Herd","expected","j","j",1,3196,1,1,""
"1090","oa_14","16_unseen","Antarktis",NA,"n","j",0,4221,1,1,""
"1091","oa_14","29_expected","Geheimnis","expected","j","j",1,1637,1,1,""
"1092","oa_14","7_unseen","Zeichnung",NA,"n","j",0,2084,1,1,""
"1093","oa_14","6_unseen","Gipfel",NA,"n","j",0,4112,1,1,""
"1094","oa_14","30_unseen","Toaster",NA,"n","j",0,1437,1,1,""
"1095","oa_14","8_unseen","Schutt",NA,"n","j",0,3492,1,1,""
"1096","oa_14","36_unexpected","Salon","unexpected","j","j",1,5393,1,1,""
"1097","oa_14","11_unseen","Zuneigung",NA,"n","j",0,2250,1,1,""
"1098","oa_14","16_unexpected","Bus","unexpected","j","j",1,3288,1,1,""
"1099","oa_14","19_expected","Fenster","expected","j","j",1,941,1,1,""
"1100","oa_14","39_unseen","Makler",NA,"n","j",0,1576,1,1,""
"1101","oa_14","41_expected","Kühe","expected","j","j",1,1249,1,1,""
"1102","oa_14","2_unexpected","Gruppe","unexpected","j","j",1,1463,1,1,""
"1103","oa_14","42_unexpected","Decke","unexpected","j","j",1,2597,1,1,""
"1104","oa_14","21_expected","Wunde","expected","j","n",0,2142,1,1,""
"1105","oa_14","37_unseen","Smaragd",NA,"n","n",1,1952,1,1,""
"1106","oa_14","45_expected","Ja-Wort","expected","j","j",1,3386,1,1,""
"1107","oa_14","28_unseen","Verschluss",NA,"n","n",1,2396,1,1,""
"1108","oa_14","21_unseen","Zigaretten",NA,"n","j",0,3356,1,1,""
"1109","oa_14","3_unseen","Lippen",NA,"n","n",1,2111,1,1,""
"1110","oa_14","36_unseen","Schande",NA,"n","n",1,1747,1,1,""
"1111","oa_14","20_unexpected","Ausrüstung","unexpected","j","n",0,5918,1,1,""
"1112","oa_14","15_expected","Schlüsseldienst","expected","j","j",1,7203,1,1,""
"1113","oa_14","24_unseen","Speisesaal",NA,"n","n",1,4572,1,1,""
"1114","oa_14","22_unseen","Pfanne",NA,"n","n",1,1503,1,1,""
"1115","oa_14","29_unseen","Materie",NA,"n","n",1,2026,1,1,""
"1116","oa_14","18_unseen","Pfadfinder",NA,"n","j",0,2921,1,1,""
"1117","oa_14","33_expected","Sonne","expected","j","j",1,1709,1,1,""
"1118","oa_14","2_unseen","Technik",NA,"n","n",1,2977,1,1,""
"1119","oa_14","48_expected","Wand","expected","j","n",0,1370,1,1,""
"1120","oa_14","34_unseen","Hypnose",NA,"n","n",1,1348,1,1,""
"1121","oa_15","13_unexpected","Couch","unexpected","j","j",1,2578,3,2,"XXXX"
"1122","oa_15","14_unseen","Fahrzeuge",NA,"n","j",0,3075,3,2,"XXXX"
"1123","oa_15","5_unexpected","Grundstück","unexpected","j","j",1,2672,3,2,"XXXX"
"1124","oa_15","7_unseen","Zeichnung",NA,"n","n",1,4262,3,2,"XXXX"
"1125","oa_15","48_unexpected","Dachboden","unexpected","j","j",1,8013,3,2,"XXXX"
"1126","oa_15","11_unseen","Zuneigung",NA,"n","j",0,3078,3,2,"XXXX"
"1127","oa_15","19_unexpected","Klappe","unexpected","j","n",0,2268,3,2,"XXXX"
"1128","oa_15","4_unseen","Unterricht",NA,"n","j",0,5745,3,2,"XXXX"
"1129","oa_15","42_expected","Boden","expected","j","j",1,2421,3,2,"XXXX"
"1130","oa_15","36_unseen","Schande",NA,"n","n",1,4357,3,2,"XXXX"
"1131","oa_15","40_expected","Affen","expected","j","j",1,3136,3,2,"XXXX"
"1132","oa_15","6_unseen","Gipfel",NA,"n","j",0,3131,3,2,"XXXX"
"1133","oa_15","39_unexpected","Hospital","unexpected","j","j",1,2526,3,2,"XXXX"
"1134","oa_15","3_unexpected","Haus","unexpected","j","j",1,1922,3,2,"XXXX"
"1135","oa_15","30_unseen","Toaster",NA,"n","j",0,2589,3,2,"XXXX"
"1136","oa_15","20_expected","Fahrrad","expected","j","n",0,7910,3,2,"XXXX"
"1137","oa_15","32_unseen","Buchstaben",NA,"n","n",1,4539,3,2,"XXXX"
"1138","oa_15","4_expected","Zähne","expected","j","j",1,3207,3,2,"XXXX"
"1139","oa_15","5_unseen","Kopfgeld",NA,"n","n",1,6015,3,2,"XXXX"
"1140","oa_15","9_unexpected","Menge","unexpected","j","j",1,3880,3,2,"XXXX"
"1141","oa_15","8_expected","Berge","expected","j","j",1,1917,3,2,"XXXX"
"1142","oa_15","15_unseen","Künstlerin",NA,"n","n",1,5753,3,2,"XXXX"
"1143","oa_15","6_expected","Tisch","expected","j","j",1,2364,3,2,"XXXX"
"1144","oa_15","34_expected","Bäckerei","expected","j","n",0,4838,3,2,"XXXX"
"1145","oa_15","1_unseen","Käsekuchen",NA,"n","n",1,2725,3,2,"XXXX"
"1146","oa_15","38_expected","Licht","expected","j","n",0,9265,3,2,"XXXX"
"1147","oa_15","23_unseen","Röhre",NA,"n","n",1,4889,3,2,"XXXX"
"1148","oa_15","14_expected","Ferien","expected","j","j",1,1895,3,2,"XXXX"
"1149","oa_15","39_unseen","Makler",NA,"n","j",0,2435,3,2,"XXXX"
"1150","oa_15","2_unseen","Technik",NA,"n","j",0,2954,3,2,"XXXX"
"1151","oa_15","18_expected","Orchester","expected","j","j",1,2341,3,2,"XXXX"
"1152","oa_15","37_unseen","Smaragd",NA,"n","j",0,5287,3,2,"XXXX"
"1153","oa_15","45_unexpected","Antwort","unexpected","j","j",1,2173,3,2,"XXXX"
"1154","oa_15","10_unseen","Zwerge",NA,"n","j",0,4342,3,2,"XXXX"
"1155","oa_15","17_unseen","Brüder",NA,"n","j",0,3250,3,2,"XXXX"
"1156","oa_15","7_unexpected","Wagen","unexpected","j","j",1,1848,3,2,"XXXX"
"1157","oa_15","37_unexpected","Waffe","unexpected","j","j",1,1478,3,2,"XXXX"
"1158","oa_15","40_unseen","Türke",NA,"n","j",0,2243,3,2,"XXXX"
"1159","oa_15","29_unseen","Materie",NA,"n","j",0,1650,3,2,"XXXX"
"1160","oa_15","49_expected","Paket","expected","j","n",0,4736,3,2,"XXXX"
"1161","oa_15","17_unexpected","Herausforderung","unexpected","j","j",1,3564,3,2,"XXXX"
"1162","oa_15","25_unexpected","Wappen","unexpected","j","j",1,2054,3,2,"XXXX"
"1163","oa_15","43_unexpected","Gatter","unexpected","j","j",1,2108,3,2,"XXXX"
"1164","oa_15","13_unseen","Frosch",NA,"n","j",0,1520,3,2,"XXXX"
"1165","oa_15","3_unseen","Lippen",NA,"n","n",1,9963,3,2,"XXXX"
"1166","oa_15","35_unexpected","Mund","unexpected","j","j",1,3847,3,2,"XXXX"
"1167","oa_15","33_unseen","Weste",NA,"n","n",1,5270,3,2,"XXXX"
"1168","oa_15","16_unseen","Antarktis",NA,"n","j",0,11844,3,2,"XXXX"
"1169","oa_15","25_unseen","Einzelkind",NA,"n","n",1,3349,3,2,"XXXX"
"1170","oa_15","28_unseen","Verschluss",NA,"n","j",0,2552,3,2,"XXXX"
"1171","oa_15","31_unexpected","Watte","unexpected","j","j",1,6258,3,2,"XXXX"
"1172","oa_15","19_unseen","Bombe",NA,"n","n",1,3753,3,2,"XXXX"
"1173","oa_15","2_expected","Auto","expected","j","j",1,2140,3,2,"XXXX"
"1174","oa_15","12_unseen","Wunsch",NA,"n","j",0,1231,3,2,"XXXX"
"1175","oa_15","36_expected","Sauna","expected","j","n",0,5189,3,2,"XXXX"
"1176","oa_15","16_expected","Schloss","expected","j","j",1,2647,3,2,"XXXX"
"1177","oa_15","10_expected","Band","expected","j","j",1,1357,3,2,"XXXX"
"1178","oa_15","8_unseen","Schutt",NA,"n","j",0,1439,3,2,"XXXX"
"1179","oa_15","24_unseen","Speisesaal",NA,"n","j",0,3406,3,2,"XXXX"
"1180","oa_15","1_unexpected","Schlafzimmer","unexpected","j","j",1,1510,3,2,"XXXX"
"1181","oa_15","27_unseen","Bildschirm",NA,"n","j",0,1650,3,2,"XXXX"
"1182","oa_15","27_unexpected","Platte","unexpected","j","j",1,1488,3,2,"XXXX"
"1183","oa_15","28_expected","Briefkasten","expected","j","j",1,1237,3,2,"XXXX"
"1184","oa_15","20_unseen","Wüste",NA,"n","j",0,2667,3,2,"XXXX"
"1185","oa_15","9_unseen","Sekunde",NA,"n","n",1,4105,3,2,"XXXX"
"1186","oa_15","24_expected","Wald","expected","j","j",1,2134,3,2,"XXXX"
"1187","oa_15","35_unseen","Mozart",NA,"n","n",1,6655,3,2,"XXXX"
"1188","oa_15","18_unseen","Pfadfinder",NA,"n","j",0,3535,3,2,"XXXX"
"1189","oa_15","15_unexpected","Untermieterin","unexpected","j","j",1,3690,3,2,"XXXX"
"1190","oa_15","30_expected","Polizei","expected","j","j",1,2888,3,2,"XXXX"
"1191","oa_15","34_unseen","Hypnose",NA,"n","n",1,3013,3,2,"XXXX"
"1192","oa_15","22_expected","Kühlschrank","expected","j","j",1,2037,3,2,"XXXX"
"1193","oa_15","22_unseen","Pfanne",NA,"n","j",0,1436,3,2,"XXXX"
"1194","oa_15","38_unseen","Felsen",NA,"n","n",1,4891,3,2,"XXXX"
"1195","oa_15","21_unexpected","Offizier","unexpected","j","j",1,1872,3,2,"XXXX"
"1196","oa_15","31_unseen","Salami",NA,"n","n",1,3350,3,2,"XXXX"
"1197","oa_15","26_unseen","Märchen",NA,"n","j",0,2224,3,2,"XXXX"
"1198","oa_15","47_expected","Tür","expected","j","j",1,1096,3,2,"XXXX"
"1199","oa_15","41_unexpected","Bock","unexpected","j","j",1,1332,3,2,"XXXX"
"1200","oa_15","21_unseen","Zigaretten",NA,"n","j",0,5839,3,2,"XXXX"
"1201","oa_16","13_unexpected","Couch","unexpected","j","j",1,22834,2,2,""
"1202","oa_16","14_unseen","Fahrzeuge",NA,"n","n",1,18679,2,2,""
"1203","oa_16","5_unexpected","Grundstück","unexpected","j","n",0,1570,2,2,""
"1204","oa_16","7_unseen","Zeichnung",NA,"n","n",1,907,2,2,""
"1205","oa_16","48_unexpected","Dachboden","unexpected","j","n",0,687,2,2,""
"1206","oa_16","11_unseen","Zuneigung",NA,"n","n",1,787,2,2,""
"1207","oa_16","19_unexpected","Klappe","unexpected","j","n",0,675,2,2,""
"1208","oa_16","4_unseen","Unterricht",NA,"n","n",1,680,2,2,""
"1209","oa_16","42_expected","Boden","expected","j","n",0,1053,2,2,""
"1210","oa_16","36_unseen","Schande",NA,"n","n",1,771,2,2,""
"1211","oa_16","40_expected","Affen","expected","j","n",0,780,2,2,""
"1212","oa_16","6_unseen","Gipfel",NA,"n","n",1,869,2,2,""
"1213","oa_16","39_unexpected","Hospital","unexpected","j","n",0,746,2,2,""
"1214","oa_16","3_unexpected","Haus","unexpected","j","n",0,1204,2,2,""
"1215","oa_16","30_unseen","Toaster",NA,"n","n",1,788,2,2,""
"1216","oa_16","20_expected","Fahrrad","expected","j","n",0,3876,2,2,""
"1217","oa_16","32_unseen","Buchstaben",NA,"n","n",1,762,2,2,""
"1218","oa_16","4_expected","Zähne","expected","j","n",0,964,2,2,""
"1219","oa_16","5_unseen","Kopfgeld",NA,"n","n",1,798,2,2,""
"1220","oa_16","9_unexpected","Menge","unexpected","j","n",0,1014,2,2,""
"1221","oa_16","8_expected","Berge","expected","j","n",0,782,2,2,""
"1222","oa_16","15_unseen","Künstlerin",NA,"n","n",1,998,2,2,""
"1223","oa_16","6_expected","Tisch","expected","j","n",0,838,2,2,""
"1224","oa_16","34_expected","Bäckerei","expected","j","n",0,1652,2,2,""
"1225","oa_16","1_unseen","Käsekuchen",NA,"n","n",1,754,2,2,""
"1226","oa_16","38_expected","Licht","expected","j","n",0,700,2,2,""
"1227","oa_16","23_unseen","Röhre",NA,"n","n",1,903,2,2,""
"1228","oa_16","14_expected","Ferien","expected","j","n",0,1163,2,2,""
"1229","oa_16","39_unseen","Makler",NA,"n","n",1,837,2,2,""
"1230","oa_16","2_unseen","Technik",NA,"n","n",1,2835,2,2,""
"1231","oa_16","18_expected","Orchester","expected","j","n",0,2202,2,2,""
"1232","oa_16","37_unseen","Smaragd",NA,"n","n",1,802,2,2,""
"1233","oa_16","45_unexpected","Antwort","unexpected","j","n",0,1146,2,2,""
"1234","oa_16","10_unseen","Zwerge",NA,"n","n",1,1140,2,2,""
"1235","oa_16","17_unseen","Brüder",NA,"n","n",1,1087,2,2,""
"1236","oa_16","7_unexpected","Wagen","unexpected","j","n",0,1219,2,2,""
"1237","oa_16","37_unexpected","Waffe","unexpected","j","n",0,761,2,2,""
"1238","oa_16","40_unseen","Türke",NA,"n","n",1,787,2,2,""
"1239","oa_16","29_unseen","Materie",NA,"n","n",1,1067,2,2,""
"1240","oa_16","49_expected","Paket","expected","j","n",0,1704,2,2,""
"1241","oa_16","17_unexpected","Herausforderung","unexpected","j","n",0,948,2,2,""
"1242","oa_16","25_unexpected","Wappen","unexpected","j","n",0,2270,2,2,""
"1243","oa_16","43_unexpected","Gatter","unexpected","j","n",0,787,2,2,""
"1244","oa_16","13_unseen","Frosch",NA,"n","n",1,892,2,2,""
"1245","oa_16","3_unseen","Lippen",NA,"n","n",1,944,2,2,""
"1246","oa_16","35_unexpected","Mund","unexpected","j","n",0,1218,2,2,""
"1247","oa_16","33_unseen","Weste",NA,"n","n",1,969,2,2,""
"1248","oa_16","16_unseen","Antarktis",NA,"n","n",1,1866,2,2,""
"1249","oa_16","25_unseen","Einzelkind",NA,"n","n",1,1040,2,2,""
"1250","oa_16","28_unseen","Verschluss",NA,"n","n",1,958,2,2,""
"1251","oa_16","31_unexpected","Watte","unexpected","j","n",0,1936,2,2,""
"1252","oa_16","19_unseen","Bombe",NA,"n","n",1,1282,2,2,""
"1253","oa_16","2_expected","Auto","expected","j","n",0,1119,2,2,""
"1254","oa_16","12_unseen","Wunsch",NA,"n","n",1,1202,2,2,""
"1255","oa_16","36_expected","Sauna","expected","j","n",0,1402,2,2,""
"1256","oa_16","16_expected","Schloss","expected","j","n",0,2658,2,2,""
"1257","oa_16","10_expected","Band","expected","j","n",0,992,2,2,""
"1258","oa_16","8_unseen","Schutt",NA,"n","n",1,744,2,2,""
"1259","oa_16","24_unseen","Speisesaal",NA,"n","n",1,1123,2,2,""
"1260","oa_16","1_unexpected","Schlafzimmer","unexpected","j","n",0,1086,2,2,""
"1261","oa_16","27_unseen","Bildschirm",NA,"n","n",1,962,2,2,""
"1262","oa_16","27_unexpected","Platte","unexpected","j","n",0,812,2,2,""
"1263","oa_16","28_expected","Briefkasten","expected","j","n",0,1107,2,2,""
"1264","oa_16","20_unseen","Wüste",NA,"n","n",1,863,2,2,""
"1265","oa_16","9_unseen","Sekunde",NA,"n","n",1,869,2,2,""
"1266","oa_16","24_expected","Wald","expected","j","n",0,1546,2,2,""
"1267","oa_16","35_unseen","Mozart",NA,"n","n",1,756,2,2,""
"1268","oa_16","18_unseen","Pfadfinder",NA,"n","n",1,734,2,2,""
"1269","oa_16","15_unexpected","Untermieterin","unexpected","j","n",0,992,2,2,""
"1270","oa_16","30_expected","Polizei","expected","j","n",0,1681,2,2,""
"1271","oa_16","34_unseen","Hypnose",NA,"n","n",1,1702,2,2,""
"1272","oa_16","22_expected","Kühlschrank","expected","j","n",0,786,2,2,""
"1273","oa_16","22_unseen","Pfanne",NA,"n","n",1,1114,2,2,""
"1274","oa_16","38_unseen","Felsen",NA,"n","n",1,958,2,2,""
"1275","oa_16","21_unexpected","Offizier","unexpected","j","n",0,1128,2,2,""
"1276","oa_16","31_unseen","Salami",NA,"n","n",1,747,2,2,""
"1277","oa_16","26_unseen","Märchen",NA,"n","n",1,733,2,2,""
"1278","oa_16","47_expected","Tür","expected","j","n",0,2110,2,2,""
"1279","oa_16","41_unexpected","Bock","unexpected","j","n",0,699,2,2,""
"1280","oa_16","21_unseen","Zigaretten",NA,"n","n",1,695,2,2,""
"1281","oa_17","13_unexpected","Couch","unexpected","j","j",1,4930,4,2,""
"1282","oa_17","14_unseen","Fahrzeuge",NA,"n","n",1,7254,4,2,""
"1283","oa_17","5_unexpected","Grundstück","unexpected","j","j",1,4070,4,2,""
"1284","oa_17","7_unseen","Zeichnung",NA,"n","n",1,3412,4,2,""
"1285","oa_17","48_unexpected","Dachboden","unexpected","j","j",1,2309,4,2,""
"1286","oa_17","11_unseen","Zuneigung",NA,"n","n",1,1993,4,2,""
"1287","oa_17","19_unexpected","Klappe","unexpected","j","j",1,4178,4,2,""
"1288","oa_17","4_unseen","Unterricht",NA,"n","j",0,3035,4,2,""
"1289","oa_17","42_expected","Boden","expected","j","j",1,4954,4,2,""
"1290","oa_17","36_unseen","Schande",NA,"n","n",1,5301,4,2,""
"1291","oa_17","40_expected","Affen","expected","j","n",0,15738,4,2,""
"1292","oa_17","6_unseen","Gipfel",NA,"n","n",1,3802,4,2,""
"1293","oa_17","39_unexpected","Hospital","unexpected","j","j",1,2458,4,2,""
"1294","oa_17","3_unexpected","Haus","unexpected","j","j",1,3641,4,2,""
"1295","oa_17","30_unseen","Toaster",NA,"n","n",1,2280,4,2,""
"1296","oa_17","20_expected","Fahrrad","expected","j","j",1,2669,4,2,""
"1297","oa_17","32_unseen","Buchstaben",NA,"n","n",1,4035,4,2,""
"1298","oa_17","4_expected","Zähne","expected","j","j",1,1802,4,2,""
"1299","oa_17","5_unseen","Kopfgeld",NA,"n","n",1,1602,4,2,""
"1300","oa_17","9_unexpected","Menge","unexpected","j","n",0,5882,4,2,""
"1301","oa_17","8_expected","Berge","expected","j","j",1,1888,4,2,""
"1302","oa_17","15_unseen","Künstlerin",NA,"n","n",1,15876,4,2,""
"1303","oa_17","6_expected","Tisch","expected","j","n",0,8478,4,2,""
"1304","oa_17","34_expected","Bäckerei","expected","j","j",1,2973,4,2,""
"1305","oa_17","1_unseen","Käsekuchen",NA,"n","n",1,3879,4,2,""
"1306","oa_17","38_expected","Licht","expected","j","j",1,4349,4,2,""
"1307","oa_17","23_unseen","Röhre",NA,"n","n",1,3280,4,2,""
"1308","oa_17","14_expected","Ferien","expected","j","j",1,2045,4,2,""
"1309","oa_17","39_unseen","Makler",NA,"n","n",1,2860,4,2,""
"1310","oa_17","2_unseen","Technik",NA,"n","n",1,2850,4,2,""
"1311","oa_17","18_expected","Orchester","expected","j","j",1,2097,4,2,""
"1312","oa_17","37_unseen","Smaragd",NA,"n","n",1,1654,4,2,""
"1313","oa_17","45_unexpected","Antwort","unexpected","j","n",0,6804,4,2,""
"1314","oa_17","10_unseen","Zwerge",NA,"n","n",1,17180,4,2,""
"1315","oa_17","17_unseen","Brüder",NA,"n","j",0,4954,4,2,""
"1316","oa_17","7_unexpected","Wagen","unexpected","j","j",1,7093,4,2,""
"1317","oa_17","37_unexpected","Waffe","unexpected","j","n",0,4508,4,2,""
"1318","oa_17","40_unseen","Türke",NA,"n","n",1,2681,4,2,""
"1319","oa_17","29_unseen","Materie",NA,"n","n",1,3798,4,2,""
"1320","oa_17","49_expected","Paket","expected","j","n",0,11679,4,2,""
"1321","oa_17","17_unexpected","Herausforderung","unexpected","j","n",0,12791,4,2,""
"1322","oa_17","25_unexpected","Wappen","unexpected","j","n",0,3515,4,2,""
"1323","oa_17","43_unexpected","Gatter","unexpected","j","j",1,4935,4,2,""
"1324","oa_17","13_unseen","Frosch",NA,"n","n",1,2411,4,2,""
"1325","oa_17","3_unseen","Lippen",NA,"n","j",0,7994,4,2,""
"1326","oa_17","35_unexpected","Mund","unexpected","j","j",1,3941,4,2,""
"1327","oa_17","33_unseen","Weste",NA,"n","n",1,4584,4,2,""
"1328","oa_17","16_unseen","Antarktis",NA,"n","n",1,3274,4,2,""
"1329","oa_17","25_unseen","Einzelkind",NA,"n","n",1,3696,4,2,""
"1330","oa_17","28_unseen","Verschluss",NA,"n","n",1,7029,4,2,""
"1331","oa_17","31_unexpected","Watte","unexpected","j","j",1,1670,4,2,""
"1332","oa_17","19_unseen","Bombe",NA,"n","n",1,2267,4,2,""
"1333","oa_17","2_expected","Auto","expected","j","j",1,7408,4,2,""
"1334","oa_17","12_unseen","Wunsch",NA,"n","n",1,4210,4,2,""
"1335","oa_17","36_expected","Sauna","expected","j","j",1,1963,4,2,""
"1336","oa_17","16_expected","Schloss","expected","j","n",0,4797,4,2,""
"1337","oa_17","10_expected","Band","expected","j","n",0,6494,4,2,""
"1338","oa_17","8_unseen","Schutt",NA,"n","n",1,2541,4,2,""
"1339","oa_17","24_unseen","Speisesaal",NA,"n","n",1,6304,4,2,""
"1340","oa_17","1_unexpected","Schlafzimmer","unexpected","j","j",1,3644,4,2,""
"1341","oa_17","27_unseen","Bildschirm",NA,"n","n",1,5147,4,2,""
"1342","oa_17","27_unexpected","Platte","unexpected","j","n",0,5383,4,2,""
"1343","oa_17","28_expected","Briefkasten","expected","j","n",0,4609,4,2,""
"1344","oa_17","20_unseen","Wüste",NA,"n","j",0,9617,4,2,""
"1345","oa_17","9_unseen","Sekunde",NA,"n","n",1,3460,4,2,""
"1346","oa_17","24_expected","Wald","expected","j","n",0,7410,4,2,""
"1347","oa_17","35_unseen","Mozart",NA,"n","n",1,2836,4,2,""
"1348","oa_17","18_unseen","Pfadfinder",NA,"n","n",1,2131,4,2,""
"1349","oa_17","15_unexpected","Untermieterin","unexpected","j","j",1,1710,4,2,""
"1350","oa_17","30_expected","Polizei","expected","j","j",1,3130,4,2,""
"1351","oa_17","34_unseen","Hypnose",NA,"n","n",1,1966,4,2,""
"1352","oa_17","22_expected","Kühlschrank","expected","j","j",1,3039,4,2,""
"1353","oa_17","22_unseen","Pfanne",NA,"n","n",1,5630,4,2,""
"1354","oa_17","38_unseen","Felsen",NA,"n","n",1,7085,4,2,""
"1355","oa_17","21_unexpected","Offizier","unexpected","j","j",1,2516,4,2,""
"1356","oa_17","31_unseen","Salami",NA,"n","n",1,2239,4,2,""
"1357","oa_17","26_unseen","Märchen",NA,"n","n",1,7566,4,2,""
"1358","oa_17","47_expected","Tür","expected","j","j",1,4897,4,2,""
"1359","oa_17","41_unexpected","Bock","unexpected","j","j",1,3175,4,2,""
"1360","oa_17","21_unseen","Zigaretten",NA,"n","n",1,5512,4,2,""
"1361","oa_18","11_expected","Müll","expected","j","j",1,3136,1,1,""
"1362","oa_18","40_unexpected","Vogel","unexpected","j","j",1,3883,1,1,""
"1363","oa_18","23_expected","Zug","expected","j","j",1,11993,1,1,""
"1364","oa_18","38_unseen","Felsen",NA,"n","n",1,2084,1,1,""
"1365","oa_18","9_unseen","Sekunde",NA,"n","n",1,2321,1,1,""
"1366","oa_18","12_unseen","Wunsch",NA,"n","n",1,1732,1,1,""
"1367","oa_18","33_unseen","Weste",NA,"n","n",1,1879,1,1,""
"1368","oa_18","30_unexpected","Geschäft","unexpected","j","n",0,3180,1,1,""
"1369","oa_18","3_expected","Tür","expected","j","n",0,3886,1,1,""
"1370","oa_18","25_expected","Flagge","expected","j","j",1,3227,1,1,""
"1371","oa_18","43_expected","Stall","expected","j","j",1,6651,1,1,""
"1372","oa_18","35_unseen","Mozart",NA,"n","n",1,2299,1,1,""
"1373","oa_18","12_unexpected","Bart","unexpected","j","j",1,2879,1,1,""
"1374","oa_18","17_unseen","Brüder",NA,"n","n",1,1660,1,1,""
"1375","oa_18","40_unseen","Türke",NA,"n","n",1,3265,1,1,""
"1376","oa_18","1_unseen","Käsekuchen",NA,"n","n",1,2527,1,1,""
"1377","oa_18","49_unexpected","Umschlag","unexpected","j","j",1,5891,1,1,""
"1378","oa_18","32_unseen","Buchstaben",NA,"n","n",1,3105,1,1,""
"1379","oa_18","25_unseen","Einzelkind",NA,"n","n",1,2198,1,1,""
"1380","oa_18","31_unseen","Salami",NA,"n","n",1,1494,1,1,""
"1381","oa_18","22_unexpected","Badewanne","unexpected","j","j",1,2258,1,1,""
"1382","oa_18","23_unseen","Röhre",NA,"n","n",1,2233,1,1,""
"1383","oa_18","24_unexpected","Gegend","unexpected","j","j",1,3863,1,1,""
"1384","oa_18","14_unexpected","Weihnachtsmann","unexpected","j","n",0,1941,1,1,""
"1385","oa_18","4_unseen","Unterricht",NA,"n","n",1,3103,1,1,""
"1386","oa_18","34_unexpected","Hotelzimmer","unexpected","j","j",1,3628,1,1,""
"1387","oa_18","17_expected","Rätsel","expected","j","j",1,3604,1,1,""
"1388","oa_18","10_unexpected","Rose","unexpected","j","n",0,1708,1,1,""
"1389","oa_18","14_unseen","Fahrzeuge",NA,"n","n",1,9992,1,1,""
"1390","oa_18","44_unexpected","Vorhang","unexpected","j","n",0,5916,1,1,""
"1391","oa_18","20_unseen","Wüste",NA,"n","n",1,2785,1,1,""
"1392","oa_18","4_unexpected","Bauch","unexpected","j","j",1,1730,1,1,""
"1393","oa_18","13_unseen","Frosch",NA,"n","n",1,6700,1,1,""
"1394","oa_18","26_unexpected","Ratte","unexpected","j","j",1,2562,1,1,""
"1395","oa_18","38_unexpected","Computer","unexpected","j","j",1,4628,1,1,""
"1396","oa_18","31_expected","Teig","expected","j","j",1,6109,1,1,""
"1397","oa_18","47_unexpected","Fensterrahmen","unexpected","j","j",1,2818,1,1,""
"1398","oa_18","10_unseen","Zwerge",NA,"n","n",1,1778,1,1,""
"1399","oa_18","8_unexpected","Osten","unexpected","j","n",0,4179,1,1,""
"1400","oa_18","9_expected","Ziel","expected","j","n",0,4910,1,1,""
"1401","oa_18","5_unseen","Kopfgeld",NA,"n","n",1,1691,1,1,""
"1402","oa_18","15_unseen","Künstlerin",NA,"n","n",1,2319,1,1,""
"1403","oa_18","39_expected","Apotheke","expected","j","j",1,3098,1,1,""
"1404","oa_18","35_expected","Nase","expected","j","n",0,4174,1,1,""
"1405","oa_18","27_unseen","Bildschirm",NA,"n","n",1,3977,1,1,""
"1406","oa_18","7_expected","Schiff","expected","j","n",0,2243,1,1,""
"1407","oa_18","26_unseen","Märchen",NA,"n","n",1,3922,1,1,""
"1408","oa_18","19_unseen","Bombe",NA,"n","n",1,1438,1,1,""
"1409","oa_18","27_expected","Herd","expected","j","j",1,2140,1,1,""
"1410","oa_18","16_unseen","Antarktis",NA,"n","n",1,1335,1,1,""
"1411","oa_18","29_expected","Geheimnis","expected","j","n",0,4082,1,1,""
"1412","oa_18","7_unseen","Zeichnung",NA,"n","n",1,5111,1,1,""
"1413","oa_18","6_unseen","Gipfel",NA,"n","n",1,3355,1,1,""
"1414","oa_18","30_unseen","Toaster",NA,"n","n",1,2174,1,1,""
"1415","oa_18","8_unseen","Schutt",NA,"n","n",1,1479,1,1,""
"1416","oa_18","36_unexpected","Salon","unexpected","j","j",1,2509,1,1,""
"1417","oa_18","11_unseen","Zuneigung",NA,"n","n",1,2793,1,1,""
"1418","oa_18","16_unexpected","Bus","unexpected","j","n",0,6594,1,1,""
"1419","oa_18","19_expected","Fenster","expected","j","j",1,1988,1,1,""
"1420","oa_18","39_unseen","Makler",NA,"n","n",1,1621,1,1,""
"1421","oa_18","41_expected","Kühe","expected","j","j",1,1612,1,1,""
"1422","oa_18","2_unexpected","Gruppe","unexpected","j","j",1,4772,1,1,""
"1423","oa_18","42_unexpected","Decke","unexpected","j","j",1,1639,1,1,""
"1424","oa_18","21_expected","Wunde","expected","j","j",1,3308,1,1,""
"1425","oa_18","37_unseen","Smaragd",NA,"n","n",1,1017,1,1,""
"1426","oa_18","45_expected","Ja-Wort","expected","j","n",0,2552,1,1,""
"1427","oa_18","28_unseen","Verschluss",NA,"n","n",1,2706,1,1,""
"1428","oa_18","21_unseen","Zigaretten",NA,"n","n",1,1391,1,1,""
"1429","oa_18","3_unseen","Lippen",NA,"n","n",1,1799,1,1,""
"1430","oa_18","36_unseen","Schande",NA,"n","n",1,1871,1,1,""
"1431","oa_18","20_unexpected","Ausrüstung","unexpected","j","j",1,2725,1,1,""
"1432","oa_18","15_expected","Schlüsseldienst","expected","j","j",1,1800,1,1,""
"1433","oa_18","24_unseen","Speisesaal",NA,"n","n",1,3664,1,1,""
"1434","oa_18","22_unseen","Pfanne",NA,"n","j",0,2182,1,1,""
"1435","oa_18","29_unseen","Materie",NA,"n","n",1,1807,1,1,""
"1436","oa_18","18_unseen","Pfadfinder",NA,"n","n",1,2175,1,1,""
"1437","oa_18","33_expected","Sonne","expected","j","j",1,1768,1,1,""
"1438","oa_18","2_unseen","Technik",NA,"n","n",1,3617,1,1,""
"1439","oa_18","48_expected","Wand","expected","j","n",0,3185,1,1,""
"1440","oa_18","34_unseen","Hypnose",NA,"n","n",1,2562,1,1,""
"1441","oa_19","13_unexpected","Couch","unexpected","j","j",1,2934,3,2,"XXXX"
"1442","oa_19","14_unseen","Fahrzeuge",NA,"n","j",0,2953,3,2,"XXXX"
"1443","oa_19","5_unexpected","Grundstück","unexpected","j","n",0,1916,3,2,"XXXX"
"1444","oa_19","7_unseen","Zeichnung",NA,"n","n",1,2463,3,2,"XXXX"
"1445","oa_19","48_unexpected","Dachboden","unexpected","j","j",1,2141,3,2,"XXXX"
"1446","oa_19","11_unseen","Zuneigung",NA,"n","n",1,2160,3,2,"XXXX"
"1447","oa_19","19_unexpected","Klappe","unexpected","j","n",0,1874,3,2,"XXXX"
"1448","oa_19","4_unseen","Unterricht",NA,"n","n",1,2775,3,2,"XXXX"
"1449","oa_19","42_expected","Boden","expected","j","j",1,1968,3,2,"XXXX"
"1450","oa_19","36_unseen","Schande",NA,"n","n",1,1978,3,2,"XXXX"
"1451","oa_19","40_expected","Affen","expected","j","j",1,2683,3,2,"XXXX"
"1452","oa_19","6_unseen","Gipfel",NA,"n","n",1,3056,3,2,"XXXX"
"1453","oa_19","39_unexpected","Hospital","unexpected","j","j",1,3255,3,2,"XXXX"
"1454","oa_19","3_unexpected","Haus","unexpected","j","j",1,1749,3,2,"XXXX"
"1455","oa_19","30_unseen","Toaster",NA,"n","n",1,1999,3,2,"XXXX"
"1456","oa_19","20_expected","Fahrrad","expected","j","n",0,3055,3,2,"XXXX"
"1457","oa_19","32_unseen","Buchstaben",NA,"n","n",1,2206,3,2,"XXXX"
"1458","oa_19","4_expected","Zähne","expected","j","n",0,2750,3,2,"XXXX"
"1459","oa_19","5_unseen","Kopfgeld",NA,"n","n",1,1312,3,2,"XXXX"
"1460","oa_19","9_unexpected","Menge","unexpected","j","n",0,1524,3,2,"XXXX"
"1461","oa_19","8_expected","Berge","expected","j","j",1,1927,3,2,"XXXX"
"1462","oa_19","15_unseen","Künstlerin",NA,"n","n",1,2139,3,2,"XXXX"
